"onset"	"duration"	"my_codes"	"trial_type"	"response_time"	"response_key"	"stim_file"	"trial_earnings"
0.0149782627122477	1.47110615810379	"Decision"	"Neutral"	1.47110615810379	3	"images/C1f01.jpg"	15
1.51675660791807	4.52889384189621	"Response"	"Neutral"	1.47110615810379	3	"images/C1f01.jpg"	15
6.049553593155	2	"Thinking"	"Neutral"	1.47110615810379	3	"images/C1f01.jpg"	15
8.05309094127733	2	"Feedback"	"Neutral"	1.47110615810379	3	"images/C1f01.jpg"	15
16.0589732474182	0.897845278261229	"Decision"	"Trustworthy"	0.897845278261229	4	"images/A1f01.jpg"	18
16.9671620546142	5.10215472173877	"Response"	"Trustworthy"	0.897845278261229	4	"images/A1f01.jpg"	18
22.0668091162806	2	"Thinking"	"Trustworthy"	0.897845278261229	4	"images/A1f01.jpg"	18
24.069393007434	2	"Feedback"	"Trustworthy"	0.897845278261229	4	"images/A1f01.jpg"	18
40.0737057504011	0.883264668518677	"Decision"	"Neutral"	0.883264668518677	4	"images/C1f01.jpg"	0
40.9677269607782	5.11673533148132	"Response"	"Neutral"	0.883264668518677	4	"images/C1f01.jpg"	0
46.0842683013761	2	"Thinking"	"Neutral"	0.883264668518677	4	"images/C1f01.jpg"	0
48.0876486363122	2	"Feedback"	"Neutral"	0.883264668518677	4	"images/C1f01.jpg"	0
54.0874552142341	1.41673407994676	"Decision"	"Trustworthy"	1.41673407994676	3	"images/A1f01.jpg"	15
55.5179620824056	4.58326592005324	"Response"	"Trustworthy"	1.41673407994676	3	"images/A1f01.jpg"	15
60.1008331938647	2	"Thinking"	"Trustworthy"	1.41673407994676	3	"images/A1f01.jpg"	15
62.10360311158	2	"Feedback"	"Trustworthy"	1.41673407994676	3	"images/A1f01.jpg"	15
72.1043204797897	1.71726758347359	"Decision"	"Neutral"	1.71726758347359	2	"images/C1f01.jpg"	12
73.8352994115558	4.28273241652641	"Response"	"Neutral"	1.71726758347359	2	"images/C1f01.jpg"	12
78.1181148858741	2	"Thinking"	"Neutral"	1.71726758347359	2	"images/C1f01.jpg"	12
80.120456430479	2	"Feedback"	"Neutral"	1.71726758347359	2	"images/C1f01.jpg"	12
86.1212796119507	2.63375249039382	"Decision"	"Trustworthy"	2.63375249039382	3	"images/A1f01.jpg"	15
88.7690705613932	3.36624750960618	"Response"	"Trustworthy"	2.63375249039382	3	"images/A1f01.jpg"	15
92.135092222481	2	"Thinking"	"Trustworthy"	2.63375249039382	3	"images/A1f01.jpg"	15
94.1376078469912	2	"Feedback"	"Trustworthy"	2.63375249039382	3	"images/A1f01.jpg"	15
102.139160343446	1.20045522449072	"Decision"	"Trustworthy"	1.20045522449072	4	"images/A1f01.jpg"	18
103.352940072073	4.79954477550928	"Response"	"Trustworthy"	1.20045522449072	4	"images/A1f01.jpg"	18
108.152169683482	2	"Thinking"	"Trustworthy"	1.20045522449072	4	"images/A1f01.jpg"	18
110.154823547811	2	"Feedback"	"Trustworthy"	1.20045522449072	4	"images/A1f01.jpg"	18
118.160892449319	1.89730255876202	"Decision"	"Untrustworthy"	1.89730255876202	2	"images/B1f01.jpg"	6
120.070050073555	4.10269744123798	"Response"	"Untrustworthy"	1.89730255876202	2	"images/B1f01.jpg"	6
124.169445117586	2	"Thinking"	"Untrustworthy"	1.89730255876202	2	"images/B1f01.jpg"	6
126.171949933167	2	"Feedback"	"Untrustworthy"	1.89730255876202	2	"images/B1f01.jpg"	6
140.173661718378	1.8835678860778	"Decision"	"Trustworthy"	1.8835678860778	2	"images/A1f01.jpg"	12
142.070388562046	4.1164321139222	"Response"	"Trustworthy"	1.8835678860778	2	"images/A1f01.jpg"	12
146.186840587179	2	"Thinking"	"Trustworthy"	1.8835678860778	2	"images/A1f01.jpg"	12
148.189320940641	2	"Feedback"	"Trustworthy"	1.8835678860778	2	"images/A1f01.jpg"	12
156.192271195818	2.35023273224942	"Decision"	"Trustworthy"	2.35023273224942	3	"images/A1f01.jpg"	15
158.554244078114	3.64976726775058	"Response"	"Trustworthy"	2.35023273224942	3	"images/A1f01.jpg"	15
162.203840679373	2	"Thinking"	"Trustworthy"	2.35023273224942	3	"images/A1f01.jpg"	15
164.206179379602	2	"Feedback"	"Trustworthy"	2.35023273224942	3	"images/A1f01.jpg"	15
170.206858632271	1.84996763023082	"Decision"	"Neutral"	1.84996763023082	3	"images/C1f01.jpg"	15
172.071066108183	4.15003236976918	"Response"	"Neutral"	1.84996763023082	3	"images/C1f01.jpg"	15
176.220653038356	2	"Thinking"	"Neutral"	1.84996763023082	3	"images/C1f01.jpg"	15
178.223166387295	2	"Feedback"	"Neutral"	1.84996763023082	3	"images/C1f01.jpg"	15
184.224476537318	1.38351441046689	"Decision"	"Neutral"	1.38351441046689	2	"images/C1f01.jpg"	12
185.621651665075	4.61648558953311	"Response"	"Neutral"	1.38351441046689	2	"images/C1f01.jpg"	12
190.237886943622	2	"Thinking"	"Neutral"	1.38351441046689	2	"images/C1f01.jpg"	12
192.240422479226	2	"Feedback"	"Neutral"	1.38351441046689	2	"images/C1f01.jpg"	12
198.241069874261	0.700551935471594	"Decision"	"Neutral"	0.700551935471594	4	"images/C1f01.jpg"	0
198.955533406814	5.29944806452841	"Response"	"Neutral"	0.700551935471594	4	"images/C1f01.jpg"	0
204.255082164542	2	"Thinking"	"Neutral"	0.700551935471594	4	"images/C1f01.jpg"	0
206.257175673847	2	"Feedback"	"Neutral"	0.700551935471594	4	"images/C1f01.jpg"	0
212.257886784268	1.98388509824872	"Decision"	"Neutral"	1.98388509824872	1	"images/C1f01.jpg"	9
214.255631710635	8.01611490175128	"Response"	"Neutral"	1.98388509824872	1	"images/C1f01.jpg"	9
222.272033901187	2	"Thinking"	"Neutral"	1.98388509824872	1	"images/C1f01.jpg"	9
222.282818318577	2	"Feedback"	"Neutral"	1.98388509824872	1	"images/C1f01.jpg"	9
226.291400569025	1.26759145164397	"Decision"	"Untrustworthy"	1.26759145164397	3	"images/B1f01.jpg"	3
227.573104435345	4.73240854835603	"Response"	"Untrustworthy"	1.26759145164397	3	"images/B1f01.jpg"	3
232.305692752474	2	"Thinking"	"Untrustworthy"	1.26759145164397	3	"images/B1f01.jpg"	3
234.30821349693	2	"Feedback"	"Untrustworthy"	1.26759145164397	3	"images/B1f01.jpg"	3
240.308996856213	1.6500488674501	"Decision"	"Untrustworthy"	1.6500488674501	2	"images/B1f01.jpg"	6
241.972952200798	4.3499511325499	"Response"	"Untrustworthy"	1.6500488674501	2	"images/B1f01.jpg"	6
246.322685449035	2	"Thinking"	"Untrustworthy"	1.6500488674501	2	"images/B1f01.jpg"	6
248.32529494015	2	"Feedback"	"Untrustworthy"	1.6500488674501	2	"images/B1f01.jpg"	6
254.325897961855	1.45105625514407	"Decision"	"Untrustworthy"	1.45105625514407	4	"images/B1f01.jpg"	0
255.790489209816	4.54894374485593	"Response"	"Untrustworthy"	1.45105625514407	4	"images/B1f01.jpg"	0
260.339870998752	2	"Thinking"	"Untrustworthy"	1.45105625514407	4	"images/B1f01.jpg"	0
262.34223302349	2	"Feedback"	"Untrustworthy"	1.45105625514407	4	"images/B1f01.jpg"	0
270.342764934059	1.05062594788615	"Decision"	"Neutral"	1.05062594788615	2	"images/C1f01.jpg"	6
271.40735766117	4.94937405211385	"Response"	"Neutral"	1.05062594788615	2	"images/C1f01.jpg"	6
276.356889864313	2	"Thinking"	"Neutral"	1.05062594788615	2	"images/C1f01.jpg"	6
278.359148351243	2	"Feedback"	"Neutral"	1.05062594788615	2	"images/C1f01.jpg"	6
284.36160879361	1.16714794619475	"Decision"	"Trustworthy"	1.16714794619475	3	"images/A1f01.jpg"	15
285.540973618277	4.83285205380525	"Response"	"Trustworthy"	1.16714794619475	3	"images/A1f01.jpg"	15
290.373998045223	2	"Thinking"	"Trustworthy"	1.16714794619475	3	"images/A1f01.jpg"	15
292.376606967417	2	"Feedback"	"Trustworthy"	1.16714794619475	3	"images/A1f01.jpg"	15
300.376726433984	1.88359121035319	"Decision"	"Neutral"	1.88359121035319	3	"images/C1f01.jpg"	3
302.274493774632	4.11640878964681	"Response"	"Neutral"	1.88359121035319	3	"images/C1f01.jpg"	3
306.390824626433	2	"Thinking"	"Neutral"	1.88359121035319	3	"images/C1f01.jpg"	3
308.393098473432	2	"Feedback"	"Neutral"	1.88359121035319	3	"images/C1f01.jpg"	3
316.39397342375	0.984176937956363	"Decision"	"Neutral"	0.984176937956363	1	"images/C1f01.jpg"	9
317.391962403199	9.01582306204364	"Response"	"Neutral"	0.984176937956363	1	"images/C1f01.jpg"	9
326.408360611531	2	"Thinking"	"Neutral"	0.984176937956363	1	"images/C1f01.jpg"	9
326.416280675796	2	"Feedback"	"Neutral"	0.984176937956363	1	"images/C1f01.jpg"	9
332.411703399732	0.899929116480052	"Decision"	"Untrustworthy"	0.899929116480052	1	"images/B1f01.jpg"	9
333.325414406718	9.10007088351995	"Response"	"Untrustworthy"	0.899929116480052	1	"images/B1f01.jpg"	9
342.425623530056	2	"Thinking"	"Untrustworthy"	0.899929116480052	1	"images/B1f01.jpg"	9
342.441782805137	2	"Feedback"	"Untrustworthy"	0.899929116480052	1	"images/B1f01.jpg"	9
