"onset"	"duration"	"event"	"trial_type"	"response_time"	"response_key"	"stim_file"	"trial_earnings"
0.0133274999679998	3.09079350001412	"Decision"	"Neutral"	3.09079350001412	"2"	"images/C1f01.jpg"	12
3.13574350002455	2.90920649998588	"Response"	"Neutral"	3.09079350001412	"2"	"images/C1f01.jpg"	12
6.03380869998364	2	"Thinking"	"Neutral"	3.09079350001412	"2"	"images/C1f01.jpg"	12
8.03672390000429	2	"Feedback"	"Neutral"	3.09079350001412	"2"	"images/C1f01.jpg"	12
14.0427997999941	1.03014360001544	"Decision"	"Untrustworthy"	1.03014360001544	"2"	"images/A1f01.jpg"	6
15.0846235000063	4.96985639998456	"Response"	"Untrustworthy"	1.03014360001544	"2"	"images/A1f01.jpg"	6
20.0508863999858	2	"Thinking"	"Untrustworthy"	1.03014360001544	"2"	"images/A1f01.jpg"	6
22.0536783999996	2	"Feedback"	"Untrustworthy"	1.03014360001544	"2"	"images/A1f01.jpg"	6
28.0604617000208	0.614166699990164	"Decision"	"Trustworthy"	0.614166699990164	"2"	"images/B1f01.jpg"	12
28.6846489000018	5.38583330000984	"Response"	"Trustworthy"	0.614166699990164	"2"	"images/B1f01.jpg"	12
34.0678107999847	2	"Thinking"	"Trustworthy"	0.614166699990164	"2"	"images/B1f01.jpg"	12
36.0702628999716	2	"Feedback"	"Trustworthy"	0.614166699990164	"2"	"images/B1f01.jpg"	12
46.0708581000217	1.0502462000004	"Decision"	"Trustworthy"	1.0502462000004	"2"	"images/B1f01.jpg"	12
47.1352946999832	4.9497537999996	"Response"	"Trustworthy"	1.0502462000004	"2"	"images/B1f01.jpg"	12
52.0846003000042	2	"Thinking"	"Trustworthy"	1.0502462000004	"2"	"images/B1f01.jpg"	12
54.08749299997	2	"Feedback"	"Trustworthy"	1.0502462000004	"2"	"images/B1f01.jpg"	12
68.0886098999763	1.58402170002228	"Decision"	"Neutral"	1.58402170002228	"2"	"images/C1f01.jpg"	12
69.6861594999791	4.41597829997772	"Response"	"Neutral"	1.58402170002228	"2"	"images/C1f01.jpg"	12
74.1022186999908	2	"Thinking"	"Neutral"	1.58402170002228	"2"	"images/C1f01.jpg"	12
76.1050962000154	2	"Feedback"	"Neutral"	1.58402170002228	"2"	"images/C1f01.jpg"	12
82.105871799984	1.05045739997877	"Decision"	"Neutral"	1.05045739997877	"2"	"images/C1f01.jpg"	12
83.1695870999829	4.94954260002123	"Response"	"Neutral"	1.05045739997877	"2"	"images/C1f01.jpg"	12
88.1192145000095	2	"Thinking"	"Neutral"	1.05045739997877	"2"	"images/C1f01.jpg"	12
90.122142600012	2	"Feedback"	"Neutral"	1.05045739997877	"2"	"images/C1f01.jpg"	12
96.122869200015	1.25042090000352	"Decision"	"Untrustworthy"	1.25042090000352	"4"	"images/A1f01.jpg"	0
97.3865466999705	4.74957909999648	"Response"	"Untrustworthy"	1.25042090000352	"4"	"images/A1f01.jpg"	0
102.136086200015	2	"Thinking"	"Untrustworthy"	1.25042090000352	"4"	"images/A1f01.jpg"	0
104.139424699999	2	"Feedback"	"Untrustworthy"	1.25042090000352	"4"	"images/A1f01.jpg"	0
118.140659099969	0.816980200004764	"Decision"	"Untrustworthy"	0.816980200004764	"4"	"images/A1f01.jpg"	18
118.970523800002	5.18301979999524	"Response"	"Untrustworthy"	0.816980200004764	"4"	"images/A1f01.jpg"	18
124.153571499977	2	"Thinking"	"Untrustworthy"	0.816980200004764	"4"	"images/A1f01.jpg"	18
126.156595700013	2	"Feedback"	"Untrustworthy"	0.816980200004764	"4"	"images/A1f01.jpg"	18
132.157336300006	0.833630800014362	"Decision"	"Untrustworthy"	0.833630800014362	"2"	"images/A1f01.jpg"	6
133.00427580002	5.16636919998564	"Response"	"Untrustworthy"	0.833630800014362	"2"	"images/A1f01.jpg"	6
138.170423100004	2	"Thinking"	"Untrustworthy"	0.833630800014362	"2"	"images/A1f01.jpg"	6
140.173620300018	2	"Feedback"	"Untrustworthy"	0.833630800014362	"2"	"images/A1f01.jpg"	6
148.174161100003	1.6505926999962	"Decision"	"Untrustworthy"	1.6505926999962	"4"	"images/A1f01.jpg"	0
149.838322299998	4.3494073000038	"Response"	"Untrustworthy"	1.6505926999962	"4"	"images/A1f01.jpg"	0
154.187761800014	2	"Thinking"	"Untrustworthy"	1.6505926999962	"4"	"images/A1f01.jpg"	0
156.190712400014	2	"Feedback"	"Untrustworthy"	1.6505926999962	"4"	"images/A1f01.jpg"	0
168.191746499971	1.11699090001639	"Decision"	"Neutral"	1.11699090001639	"2"	"images/C1f01.jpg"	6
169.322039699997	4.88300909998361	"Response"	"Neutral"	1.11699090001639	"2"	"images/C1f01.jpg"	6
174.204905699997	2	"Thinking"	"Neutral"	1.11699090001639	"2"	"images/C1f01.jpg"	6
176.20760199998	2	"Feedback"	"Neutral"	1.11699090001639	"2"	"images/C1f01.jpg"	6
182.208189099969	0.717212999996264	"Decision"	"Trustworthy"	0.717212999996264	"1"	"images/B1f01.jpg"	9
182.939159300004	9.28278700000374	"Response"	"Trustworthy"	0.717212999996264	"1"	"images/B1f01.jpg"	9
192.221714599989	2	"Thinking"	"Trustworthy"	0.717212999996264	"1"	"images/B1f01.jpg"	9
192.232576999988	2	"Feedback"	"Trustworthy"	0.717212999996264	"1"	"images/B1f01.jpg"	9
196.241902999987	0.817130499985069	"Decision"	"Trustworthy"	0.817130499985069	"1"	"images/B1f01.jpg"	9
197.072747999977	9.18286950001493	"Response"	"Trustworthy"	0.817130499985069	"1"	"images/B1f01.jpg"	9
206.255740799999	2	"Thinking"	"Trustworthy"	0.817130499985069	"1"	"images/B1f01.jpg"	9
206.261809799995	2	"Feedback"	"Trustworthy"	0.817130499985069	"1"	"images/B1f01.jpg"	9
210.259039699973	0.583951600012369	"Decision"	"Untrustworthy"	0.583951600012369	"2"	"images/A1f01.jpg"	6
210.856513599982	5.41604839998763	"Response"	"Untrustworthy"	0.583951600012369	"2"	"images/A1f01.jpg"	6
216.272718199994	2	"Thinking"	"Untrustworthy"	0.583951600012369	"2"	"images/A1f01.jpg"	6
218.275294099993	2	"Feedback"	"Untrustworthy"	0.583951600012369	"2"	"images/A1f01.jpg"	6
230.276260300016	0.483749800012447	"Decision"	"Neutral"	0.483749800012447	"1"	"images/C1f01.jpg"	9
230.773658699996	9.51625019998755	"Response"	"Neutral"	0.483749800012447	"1"	"images/C1f01.jpg"	9
240.289724799979	2	"Thinking"	"Neutral"	0.483749800012447	"1"	"images/C1f01.jpg"	9
240.299713500019	2	"Feedback"	"Neutral"	0.483749800012447	"1"	"images/C1f01.jpg"	9
244.309493399982	2.33391789998859	"Decision"	"Neutral"	2.33391789998859	"1"	"images/C1f01.jpg"	9
246.657515799976	7.66608210001141	"Response"	"Neutral"	2.33391789998859	"1"	"images/C1f01.jpg"	9
254.323556900024	2	"Thinking"	"Neutral"	2.33391789998859	"1"	"images/C1f01.jpg"	9
254.329090400017	2	"Feedback"	"Neutral"	2.33391789998859	"1"	"images/C1f01.jpg"	9
258.326048500021	1.08400220004842	"Decision"	"Trustworthy"	1.08400220004842	"1"	"images/B1f01.jpg"	9
259.424238500011	8.91599779995158	"Response"	"Trustworthy"	1.08400220004842	"1"	"images/B1f01.jpg"	9
268.340715800005	2	"Thinking"	"Trustworthy"	1.08400220004842	"1"	"images/B1f01.jpg"	9
268.351542999968	2	"Feedback"	"Trustworthy"	1.08400220004842	"1"	"images/B1f01.jpg"	9
272.360529800004	0.733835099963471	"Decision"	"Untrustworthy"	0.733835099963471	"1"	"images/A1f01.jpg"	9
273.108192900021	9.26616490003653	"Response"	"Untrustworthy"	0.733835099963471	"1"	"images/A1f01.jpg"	9
282.374501699989	2	"Thinking"	"Untrustworthy"	0.733835099963471	"1"	"images/A1f01.jpg"	9
282.383996699995	2	"Feedback"	"Untrustworthy"	0.733835099963471	"1"	"images/A1f01.jpg"	9
286.394017999992	0.717395300045609	"Decision"	"Neutral"	0.717395300045609	"1"	"images/C1f01.jpg"	9
287.125243199989	9.28260469995439	"Response"	"Neutral"	0.717395300045609	"1"	"images/C1f01.jpg"	9
296.408175899996	2	"Thinking"	"Neutral"	0.717395300045609	"1"	"images/C1f01.jpg"	9
296.418442800001	2	"Feedback"	"Neutral"	0.717395300045609	"1"	"images/C1f01.jpg"	9
300.427668499993	0.566969299979974	"Decision"	"Trustworthy"	0.566969299979974	"4"	"images/B1f01.jpg"	18
301.008719799982	5.43303070002003	"Response"	"Trustworthy"	0.566969299979974	"4"	"images/B1f01.jpg"	18
306.441649299988	2	"Thinking"	"Trustworthy"	0.566969299979974	"4"	"images/B1f01.jpg"	18
308.444060300011	2	"Feedback"	"Trustworthy"	0.566969299979974	"4"	"images/B1f01.jpg"	18
316.445123300015	0.800467900000513	"Decision"	"Untrustworthy"	0.800467900000513	"4"	"images/A1f01.jpg"	0
317.259272399999	5.19953209999949	"Response"	"Untrustworthy"	0.800467900000513	"4"	"images/A1f01.jpg"	0
322.458643599995	2	"Thinking"	"Untrustworthy"	0.800467900000513	"4"	"images/A1f01.jpg"	0
324.461126299982	2	"Feedback"	"Untrustworthy"	0.800467900000513	"4"	"images/A1f01.jpg"	0
330.461941600021	0.467237300006673	"Decision"	"Untrustworthy"	0.467237300006673	"2"	"images/A1f01.jpg"	6
330.943047699984	5.53276269999333	"Response"	"Untrustworthy"	0.467237300006673	"2"	"images/A1f01.jpg"	6
336.475790900004	2	"Thinking"	"Untrustworthy"	0.467237300006673	"2"	"images/A1f01.jpg"	6
338.478221099998	2	"Feedback"	"Untrustworthy"	0.467237300006673	"2"	"images/A1f01.jpg"	6
