"onset"	"duration"	"event"	"trial_type"	"response_time"	"response_key"	"stim_file_left"	"stim_file_right"
2.01481840515044	2	"View"	"Trustworthy"	1.51370964152738	"2"	"images/A9f03.jpg"	"images/silhouette.jpg"
4.01481840515044	4	"Decision"	"Trustworthy"	1.51370964152738	"2"	"images/A9f03.jpg"	"images/silhouette.jpg"
12.0647628247971	2	"View"	"Neutral"	1.3471419615671	"1"	"images/silhouette.jpg"	"images/C8f08.jpg"
14.0647628247971	4	"Decision"	"Neutral"	1.3471419615671	"1"	"images/silhouette.jpg"	"images/C8f08.jpg"
24.0746102830162	2	"View"	"Neutral"	2.5002247110242	"2"	"images/silhouette.jpg"	"images/C6f08.jpg"
26.0746102830162	4	"Decision"	"Neutral"	2.5002247110242	"2"	"images/silhouette.jpg"	"images/C6f08.jpg"
34.113196845632	2	"View"	"Trustworthy"	NA	"None"	"images/A5f03.jpg"	"images/silhouette.jpg"
36.113196845632	4	"Decision"	"Trustworthy"	NA	"None"	"images/A5f03.jpg"	"images/silhouette.jpg"
46.0917486150283	2	"View"	"Trustworthy"	1.66716273734346	"2"	"images/A4f03.jpg"	"images/silhouette.jpg"
48.0917486150283	4	"Decision"	"Trustworthy"	1.66716273734346	"2"	"images/A4f03.jpg"	"images/silhouette.jpg"
62.1129317436134	2	"View"	"Untrustworthy"	1.06803507090081	"2"	"images/B6f08.jpg"	"images/silhouette.jpg"
64.1129317436134	4	"Decision"	"Untrustworthy"	1.06803507090081	"2"	"images/B6f08.jpg"	"images/silhouette.jpg"
80.1303294887766	2	"View"	"Neutral"	0.998034490505233	"2"	"images/C3f04.jpg"	"images/silhouette.jpg"
82.1303294887766	4	"Decision"	"Neutral"	0.998034490505233	"2"	"images/C3f04.jpg"	"images/silhouette.jpg"
94.147733491729	2	"View"	"Neutral"	1.41535168106202	"2"	"images/C5f03.jpg"	"images/silhouette.jpg"
96.147733491729	4	"Decision"	"Neutral"	1.41535168106202	"2"	"images/C5f03.jpg"	"images/silhouette.jpg"
104.160921462695	2	"View"	"Trustworthy"	1.30121787625831	"1"	"images/A5f08.jpg"	"images/silhouette.jpg"
106.160921462695	4	"Decision"	"Trustworthy"	1.30121787625831	"1"	"images/A5f08.jpg"	"images/silhouette.jpg"
124.183124608127	2	"View"	"Untrustworthy"	2.49681251833681	"2"	"images/B6f08.jpg"	"images/silhouette.jpg"
126.183124608127	4	"Decision"	"Untrustworthy"	2.49681251833681	"2"	"images/B6f08.jpg"	"images/silhouette.jpg"
134.21983952797	2	"View"	"Untrustworthy"	1.74539285723586	"1"	"images/silhouette.jpg"	"images/B2f07.jpg"
136.21983952797	4	"Decision"	"Untrustworthy"	1.74539285723586	"1"	"images/silhouette.jpg"	"images/B2f07.jpg"
146.260061075911	2	"View"	"Neutral"	1.18855578580406	"2"	"images/C8f08.jpg"	"images/silhouette.jpg"
148.260061075911	4	"Decision"	"Neutral"	1.18855578580406	"2"	"images/C8f08.jpg"	"images/silhouette.jpg"
164.266684643575	2	"View"	"Neutral"	1.23157569568139	"2"	"images/C6f04.jpg"	"images/silhouette.jpg"
166.266684643575	4	"Decision"	"Neutral"	1.23157569568139	"2"	"images/C6f04.jpg"	"images/silhouette.jpg"
174.308894456364	2	"View"	"Untrustworthy"	1.80706491123419	"1"	"images/silhouette.jpg"	"images/B7f07.jpg"
176.308894456364	4	"Decision"	"Untrustworthy"	1.80706491123419	"1"	"images/silhouette.jpg"	"images/B7f07.jpg"
184.312440337846	2	"View"	"Random"	1.28358518029563	"2"	"images/silhouette.jpg"	"images/Random2.jpg"
186.312440337846	4	"Decision"	"Random"	1.28358518029563	"2"	"images/silhouette.jpg"	"images/Random2.jpg"
194.332309903111	2	"View"	"Neutral"	0.833047182415612	"2"	"images/silhouette.jpg"	"images/C6f08.jpg"
196.332309903111	4	"Decision"	"Neutral"	0.833047182415612	"2"	"images/silhouette.jpg"	"images/C6f08.jpg"
206.370574474917	2	"View"	"Untrustworthy"	0.963064920390025	"2"	"images/B5f03.jpg"	"images/silhouette.jpg"
208.370574474917	4	"Decision"	"Untrustworthy"	0.963064920390025	"2"	"images/B5f03.jpg"	"images/silhouette.jpg"
220.38029222656	2	"View"	"Untrustworthy"	0.550074126222171	"2"	"images/B8f08.jpg"	"images/silhouette.jpg"
222.38029222656	4	"Decision"	"Untrustworthy"	0.550074126222171	"2"	"images/B8f08.jpg"	"images/silhouette.jpg"
230.395837671123	2	"View"	"Untrustworthy"	0.600655700778589	"2"	"images/B5f08.jpg"	"images/silhouette.jpg"
232.395837671123	4	"Decision"	"Untrustworthy"	0.600655700778589	"2"	"images/B5f08.jpg"	"images/silhouette.jpg"
248.434536304791	2	"View"	"Trustworthy"	1.54952685558237	"1"	"images/silhouette.jpg"	"images/A8f08.jpg"
250.434536304791	4	"Decision"	"Trustworthy"	1.54952685558237	"1"	"images/silhouette.jpg"	"images/A8f08.jpg"
266.472825338715	2	"View"	"Neutral"	0.862510481849313	"2"	"images/C1f03.jpg"	"images/silhouette.jpg"
268.472825338715	4	"Decision"	"Neutral"	0.862510481849313	"2"	"images/C1f03.jpg"	"images/silhouette.jpg"
276.481936655473	2	"View"	"Trustworthy"	2.98280876129866	"2"	"images/silhouette.jpg"	"images/A4f03.jpg"
278.481936655473	4	"Decision"	"Trustworthy"	2.98280876129866	"2"	"images/silhouette.jpg"	"images/A4f03.jpg"
286.497895681765	2	"View"	"Trustworthy"	0.683856198680587	"1"	"images/silhouette.jpg"	"images/A3f08.jpg"
288.497895681765	4	"Decision"	"Trustworthy"	0.683856198680587	"1"	"images/silhouette.jpg"	"images/A3f08.jpg"
300.539112215512	2	"View"	"Trustworthy"	1.3473643969046	"2"	"images/A8f04.jpg"	"images/silhouette.jpg"
302.539112215512	4	"Decision"	"Trustworthy"	1.3473643969046	"2"	"images/A8f04.jpg"	"images/silhouette.jpg"
310.548466447508	2	"View"	"Neutral"	0.833796408493072	"2"	"images/C3f04.jpg"	"images/silhouette.jpg"
312.548466447508	4	"Decision"	"Neutral"	0.833796408493072	"2"	"images/C3f04.jpg"	"images/silhouette.jpg"
320.583356373361	2	"View"	"Trustworthy"	1.23679979797453	"1"	"images/silhouette.jpg"	"images/A6f08.jpg"
322.583356373361	4	"Decision"	"Trustworthy"	1.23679979797453	"1"	"images/silhouette.jpg"	"images/A6f08.jpg"
332.604131608969	2	"View"	"Neutral"	1.21526794065721	"1"	"images/silhouette.jpg"	"images/C5f03.jpg"
334.604131608969	4	"Decision"	"Neutral"	1.21526794065721	"1"	"images/silhouette.jpg"	"images/C5f03.jpg"
344.639749142923	2	"View"	"Neutral"	1.29741201293655	"2"	"images/C3f08.jpg"	"images/silhouette.jpg"
346.639749142923	4	"Decision"	"Neutral"	1.29741201293655	"2"	"images/C3f08.jpg"	"images/silhouette.jpg"
