onset,duration,event,trial_type,response_time,response_key,stim_file,trial_earnings
0,2.19359360000817,Decision,Untrustworthy,2.19359360000817,4,images/A1f01.jpg,0
2.22690109998803,3.80640639999183,Response,Untrustworthy,2.19359360000817,4,images/A1f01.jpg,0
6.02631999997539,2,Thinking,Untrustworthy,2.19359360000817,4,images/A1f01.jpg,0
8.02913539999281,2,Feedback,Untrustworthy,2.19359360000817,4,images/A1f01.jpg,0
14.034388399974,0.565559599985136,Decision,Neutral      ,0.565559599985136,4,images/B1f01.jpg,18
14.610539699992,5.43444040001486,Response,Neutral      ,0.565559599985136,4,images/B1f01.jpg,18
20.0434035999934,2,Thinking,Neutral      ,0.565559599985136,4,images/B1f01.jpg,18
22.0458235999977,2,Feedback,Neutral      ,0.565559599985136,4,images/B1f01.jpg,18
28.0463648999867,0.500512800004799,Decision,Neutral      ,0.500512800004799,4,images/B1f01.jpg,18
28.560934499983,5.4994871999952,Response,Neutral      ,0.500512800004799,4,images/B1f01.jpg,18
34.0603783999978,2,Thinking,Neutral      ,0.500512800004799,4,images/B1f01.jpg,18
36.0629833999847,2,Feedback,Neutral      ,0.500512800004799,4,images/B1f01.jpg,18
46.0640416999814,0.984287900006166,Decision,Untrustworthy,0.984287900006166,4,images/A1f01.jpg,0
47.0619366999891,5.01571209999383,Response,Untrustworthy,0.984287900006166,4,images/A1f01.jpg,0
52.0777010999737,2,Thinking,Untrustworthy,0.984287900006166,4,images/A1f01.jpg,0
54.0803824999894,2,Feedback,Untrustworthy,0.984287900006166,4,images/A1f01.jpg,0
68.0819600999821,1.43398400000297,Decision,Neutral      ,1.43398400000297,4,images/B1f01.jpg,18
69.5289486999973,4.56601599999703,Response,Neutral      ,1.43398400000297,4,images/B1f01.jpg,18
74.094990099984,2,Thinking,Neutral      ,1.43398400000297,4,images/B1f01.jpg,18
76.0972367999785,2,Feedback,Neutral      ,1.43398400000297,4,images/B1f01.jpg,18
82.1073574999754,0.876909500017064,Decision,Trustworthy  ,0.876909500017064,4,images/C1f01.jpg,18
82.9960453999811,5.12309049998294,Response,Trustworthy  ,0.876909500017064,4,images/C1f01.jpg,18
88.1121201999777,2,Thinking,Trustworthy  ,0.876909500017064,4,images/C1f01.jpg,18
90.1146013999824,2,Feedback,Trustworthy  ,0.876909500017064,4,images/C1f01.jpg,18
96.1154370999721,0.600464199989801,Decision,Trustworthy  ,0.600464199989801,4,images/C1f01.jpg,18
96.7296578999958,5.3995358000102,Response,Trustworthy  ,0.600464199989801,4,images/C1f01.jpg,18
102.129177299998,2,Thinking,Trustworthy  ,0.600464199989801,4,images/C1f01.jpg,18
104.131634599995,2,Feedback,Trustworthy  ,0.600464199989801,4,images/C1f01.jpg,18
118.132722699986,0.65062480000779,Decision,Trustworthy  ,0.65062480000779,4,images/C1f01.jpg,0
118.797145599994,5.34937519999221,Response,Trustworthy  ,0.65062480000779,4,images/C1f01.jpg,0
124.146088299982,2,Thinking,Trustworthy  ,0.65062480000779,4,images/C1f01.jpg,0
126.14864,2,Feedback,Trustworthy  ,0.65062480000779,4,images/C1f01.jpg,0
132.149394499982,2.00027280001086,Decision,Untrustworthy,2.00027280001086,4,images/A1f01.jpg,0
134.163684999978,3.99972719998914,Response,Untrustworthy,2.00027280001086,4,images/A1f01.jpg,0
138.163278699998,2,Thinking,Untrustworthy,2.00027280001086,4,images/A1f01.jpg,0
140.165675099997,2,Feedback,Untrustworthy,2.00027280001086,4,images/A1f01.jpg,0
148.166413599975,1.78378589998465,Decision,Untrustworthy,1.78378589998465,3,images/A1f01.jpg,3
149.964170099993,4.21621410001535,Response,Untrustworthy,1.78378589998465,3,images/A1f01.jpg,3
154.18032699998,2,Thinking,Untrustworthy,1.78378589998465,3,images/A1f01.jpg,3
156.18283179999,2,Feedback,Untrustworthy,1.78378589998465,3,images/A1f01.jpg,3
168.184374499979,0.767254100006539,Decision,Untrustworthy,0.767254100006539,1,images/A1f01.jpg,9
168.964943999978,9.23274589999346,Response,Untrustworthy,0.767254100006539,1,images/A1f01.jpg,9
178.197802899988,2,Thinking,Untrustworthy,0.767254100006539,1,images/A1f01.jpg,9
178.208443199983,2,Feedback,Untrustworthy,0.767254100006539,1,images/A1f01.jpg,9
182.217353699991,0.750389299995732,Decision,Trustworthy  ,0.750389299995732,4,images/C1f01.jpg,18
182.981944499974,5.24961070000427,Response,Trustworthy  ,0.750389299995732,4,images/C1f01.jpg,18
188.231351800001,2,Thinking,Trustworthy  ,0.750389299995732,4,images/C1f01.jpg,18
190.233702799975,2,Feedback,Trustworthy  ,0.750389299995732,4,images/C1f01.jpg,18
196.234558699973,0.617090899992036,Decision,Neutral      ,0.617090899992036,4,images/B1f01.jpg,0
196.865495299979,5.38290910000796,Response,Neutral      ,0.617090899992036,4,images/B1f01.jpg,0
202.248345699976,2,Thinking,Neutral      ,0.617090899992036,4,images/B1f01.jpg,0
204.250889599993,2,Feedback,Neutral      ,0.617090899992036,4,images/B1f01.jpg,0
210.251568699983,0.850469000026351,Decision,Untrustworthy,0.850469000026351,1,images/A1f01.jpg,9
211.115930399974,9.14953099997365,Response,Untrustworthy,0.850469000026351,1,images/A1f01.jpg,9
220.2656441,2,Thinking,Untrustworthy,0.850469000026351,1,images/A1f01.jpg,9
220.284133999987,2,Feedback,Untrustworthy,0.850469000026351,1,images/A1f01.jpg,9
230.285872899986,0.800387299997965,Decision,Neutral      ,0.800387299997965,4,images/B1f01.jpg,18
231.099835599977,5.19961270000204,Response,Neutral      ,0.800387299997965,4,images/B1f01.jpg,18
236.299346899992,2,Thinking,Neutral      ,0.800387299997965,4,images/B1f01.jpg,18
238.301834199985,2,Feedback,Neutral      ,0.800387299997965,4,images/B1f01.jpg,18
244.302518599987,0.817206399980932,Decision,Untrustworthy,0.817206399980932,1,images/A1f01.jpg,9
245.133653899975,9.18279360001907,Response,Untrustworthy,0.817206399980932,1,images/A1f01.jpg,9
254.316474799998,2,Thinking,Untrustworthy,0.817206399980932,1,images/A1f01.jpg,9
254.326120199985,2,Feedback,Untrustworthy,0.817206399980932,1,images/A1f01.jpg,9
258.336226499989,0.7505158999993,Decision,Neutral      ,0.7505158999993,4,images/B1f01.jpg,18
259.100784299983,5.2494841000007,Response,Neutral      ,0.7505158999993,4,images/B1f01.jpg,18
264.350212999998,2,Thinking,Neutral      ,0.7505158999993,4,images/B1f01.jpg,18
266.352646399988,2,Feedback,Neutral      ,0.7505158999993,4,images/B1f01.jpg,18
272.353095799976,0.883617200015578,Decision,Trustworthy  ,0.883617200015578,4,images/C1f01.jpg,18
273.250972799986,5.11638279998442,Response,Trustworthy  ,0.883617200015578,4,images/C1f01.jpg,18
278.36715939999,2,Thinking,Trustworthy  ,0.883617200015578,4,images/C1f01.jpg,18
280.369662299985,2,Feedback,Trustworthy  ,0.883617200015578,4,images/C1f01.jpg,18
286.370309999999,0.784765299991705,Decision,Untrustworthy,0.784765299991705,1,images/A1f01.jpg,9
287.168915799994,9.2152347000083,Response,Untrustworthy,0.784765299991705,1,images/A1f01.jpg,9
296.384205699986,2,Thinking,Untrustworthy,0.784765299991705,1,images/A1f01.jpg,9
296.39413489998,2,Feedback,Untrustworthy,0.784765299991705,1,images/A1f01.jpg,9
300.404011499981,0.683893000008538,Decision,Neutral      ,0.683893000008538,4,images/B1f01.jpg,18
301.101853699976,5.31610699999146,Response,Neutral      ,0.683893000008538,4,images/B1f01.jpg,18
306.418083699973,2,Thinking,Neutral      ,0.683893000008538,4,images/B1f01.jpg,18
308.421006799996,2,Feedback,Neutral      ,0.683893000008538,4,images/B1f01.jpg,18
316.421479499986,0.450304199999664,Decision,Trustworthy  ,0.450304199999664,4,images/C1f01.jpg,18
316.885375999991,5.54969580000034,Response,Trustworthy  ,0.450304199999664,4,images/C1f01.jpg,18
322.435154299979,2,Thinking,Trustworthy  ,0.450304199999664,4,images/C1f01.jpg,18
324.437415799999,2,Feedback,Trustworthy  ,0.450304199999664,4,images/C1f01.jpg,18
330.437988699996,0.550465200009057,Decision,Untrustworthy,0.550465200009057,2,images/A1f01.jpg,6
331.002664699976,5.44953479999094,Response,Untrustworthy,0.550465200009057,2,images/A1f01.jpg,6
336.452155599982,2,Thinking,Untrustworthy,0.550465200009057,2,images/A1f01.jpg,6
338.454512500001,2,Feedback,Untrustworthy,0.550465200009057,2,images/A1f01.jpg,6
349.980869699997,2.40068449999671,Decision,Neutral      ,2.40068449999671,4,images/B1f01.jpg,18
352.393740600004,3.59931550000329,Response,Neutral      ,2.40068449999671,4,images/B1f01.jpg,18
355.99311109999,2,Thinking,Neutral      ,2.40068449999671,4,images/B1f01.jpg,18
357.995640899986,2,Feedback,Neutral      ,2.40068449999671,4,images/B1f01.jpg,18
365.996515000006,0.717177199985599,Decision,Trustworthy  ,0.717177199985599,4,images/C1f01.jpg,18
366.727397899987,5.2828228000144,Response,Trustworthy  ,0.717177199985599,4,images/C1f01.jpg,18
372.010271100007,2,Thinking,Trustworthy  ,0.717177199985599,4,images/C1f01.jpg,18
374.012736400007,2,Feedback,Trustworthy  ,0.717177199985599,4,images/C1f01.jpg,18
380.013409199979,0.817050099984044,Decision,Untrustworthy,0.817050099984044,4,images/A1f01.jpg,0
380.844324100006,5.18294990001596,Response,Untrustworthy,0.817050099984044,4,images/A1f01.jpg,0
386.027293799998,2,Thinking,Untrustworthy,0.817050099984044,4,images/A1f01.jpg,0
388.029726299981,2,Feedback,Untrustworthy,0.817050099984044,4,images/A1f01.jpg,0
394.030501000001,0.700415900006192,Decision,Trustworthy  ,0.700415900006192,4,images/C1f01.jpg,18
394.744654999988,5.29958409999381,Response,Trustworthy  ,0.700415900006192,4,images/C1f01.jpg,18
400.044373899989,2,Thinking,Trustworthy  ,0.700415900006192,4,images/C1f01.jpg,18
402.046980199986,2,Feedback,Trustworthy  ,0.700415900006192,4,images/C1f01.jpg,18
410.047749699996,1.23386549999123,Decision,Untrustworthy,1.23386549999123,2,images/A1f01.jpg,6
411.295276999997,4.76613450000877,Response,Untrustworthy,1.23386549999123,2,images/A1f01.jpg,6
416.061482699995,2,Thinking,Untrustworthy,1.23386549999123,2,images/A1f01.jpg,6
418.064051699999,2,Feedback,Untrustworthy,1.23386549999123,2,images/A1f01.jpg,6
424.064733799984,0.583858099998906,Decision,Neutral      ,0.583858099998906,4,images/B1f01.jpg,0
424.662315699999,5.41614190000109,Response,Neutral      ,0.583858099998906,4,images/B1f01.jpg,0
430.078654499986,2,Thinking,Neutral      ,0.583858099998906,4,images/B1f01.jpg,0
432.081053400005,2,Feedback,Neutral      ,0.583858099998906,4,images/B1f01.jpg,0
438.081560099992,0.800595599983353,Decision,Neutral      ,0.800595599983353,4,images/B1f01.jpg,0
438.896016499988,5.19940440001665,Response,Neutral      ,0.800595599983353,4,images/B1f01.jpg,0
444.095575199986,2,Thinking,Neutral      ,0.800595599983353,4,images/B1f01.jpg,0
446.098024599982,2,Feedback,Neutral      ,0.800595599983353,4,images/B1f01.jpg,0
452.098525299982,1.01710860000458,Decision,Trustworthy  ,1.01710860000458,4,images/C1f01.jpg,18
453.12975209998,4.98289139999542,Response,Trustworthy  ,1.01710860000458,4,images/C1f01.jpg,18
458.112611399993,2,Thinking,Trustworthy  ,1.01710860000458,4,images/C1f01.jpg,18
460.115059200005,2,Feedback,Trustworthy  ,1.01710860000458,4,images/C1f01.jpg,18
468.115655700007,1.06742780000786,Decision,Neutral      ,1.06742780000786,2,images/B1f01.jpg,12
469.196846999985,4.93257219999214,Response,Neutral      ,1.06742780000786,2,images/B1f01.jpg,12
474.129588299984,2,Thinking,Neutral      ,1.06742780000786,2,images/B1f01.jpg,12
476.132012699993,2,Feedback,Neutral      ,1.06742780000786,2,images/B1f01.jpg,12
492.133561299998,0.833959099982167,Decision,Trustworthy  ,0.833959099982167,4,images/C1f01.jpg,18
492.980819199991,5.16604090001783,Response,Trustworthy  ,0.833959099982167,4,images/C1f01.jpg,18
498.1468971,2,Thinking,Trustworthy  ,0.833959099982167,4,images/C1f01.jpg,18
500.149634200003,2,Feedback,Trustworthy  ,0.833959099982167,4,images/C1f01.jpg,18
506.150035900006,0.783853100001579,Decision,Trustworthy  ,0.783853100001579,4,images/C1f01.jpg,18
506.947740400006,5.21614689999842,Response,Trustworthy  ,0.783853100001579,4,images/C1f01.jpg,18
512.163812999992,2,Thinking,Trustworthy  ,0.783853100001579,4,images/C1f01.jpg,18
514.16629199998,2,Feedback,Trustworthy  ,0.783853100001579,4,images/C1f01.jpg,18
520.167212700006,0.983917400008067,Decision,Untrustworthy,0.983917400008067,1,images/A1f01.jpg,9
521.164957800007,9.01608259999193,Response,Untrustworthy,0.983917400008067,1,images/A1f01.jpg,9
530.1811896,2,Thinking,Untrustworthy,0.983917400008067,1,images/A1f01.jpg,9
530.195827299991,2,Feedback,Untrustworthy,0.983917400008067,1,images/A1f01.jpg,9
536.201033899997,0.934136700001545,Decision,Trustworthy  ,0.934136700001545,4,images/C1f01.jpg,18
537.148732899979,5.06586329999845,Response,Trustworthy  ,0.934136700001545,4,images/C1f01.jpg,18
542.214780699986,2,Thinking,Trustworthy  ,0.934136700001545,4,images/C1f01.jpg,18
544.217264799983,2,Feedback,Trustworthy  ,0.934136700001545,4,images/C1f01.jpg,18
552.218213699991,0.817218000011053,Decision,Untrustworthy,0.817218000011053,1,images/A1f01.jpg,9
553.049173499982,9.18278199998895,Response,Untrustworthy,0.817218000011053,1,images/A1f01.jpg,9
562.232064699987,2,Thinking,Untrustworthy,0.817218000011053,1,images/A1f01.jpg,9
562.250300999993,2,Feedback,Untrustworthy,0.817218000011053,1,images/A1f01.jpg,9
572.252830199985,0.76730779997888,Decision,Untrustworthy,0.76730779997888,1,images/A1f01.jpg,9
573.033026799996,9.23269220002112,Response,Untrustworthy,0.76730779997888,1,images/A1f01.jpg,9
582.265883999993,2,Thinking,Untrustworthy,0.76730779997888,1,images/A1f01.jpg,9
582.27526699999,2,Feedback,Untrustworthy,0.76730779997888,1,images/A1f01.jpg,9
586.26965859998,1.35048779999488,Decision,Neutral      ,1.35048779999488,3,images/B1f01.jpg,15
587.633176100004,4.64951220000512,Response,Neutral      ,1.35048779999488,3,images/B1f01.jpg,15
592.282799599983,2,Thinking,Neutral      ,1.35048779999488,3,images/B1f01.jpg,15
594.285878299998,2,Feedback,Neutral      ,1.35048779999488,3,images/B1f01.jpg,15
600.286305299989,1.88399259999278,Decision,Trustworthy  ,1.88399259999278,4,images/C1f01.jpg,18
602.183727299998,4.11600740000722,Response,Trustworthy  ,1.88399259999278,4,images/C1f01.jpg,18
606.299923599989,2,Thinking,Trustworthy  ,1.88399259999278,4,images/C1f01.jpg,18
608.303094500007,2,Feedback,Trustworthy  ,1.88399259999278,4,images/C1f01.jpg,18
614.303535299987,0.6172659000149,Decision,Neutral      ,0.6172659000149,4,images/B1f01.jpg,18
614.934081999993,5.3827340999851,Response,Neutral      ,0.6172659000149,4,images/B1f01.jpg,18
620.317000399984,2,Thinking,Neutral      ,0.6172659000149,4,images/B1f01.jpg,18
622.320080699981,2,Feedback,Neutral      ,0.6172659000149,4,images/B1f01.jpg,18
628.320572900004,0.71716280002147,Decision,Trustworthy  ,0.71716280002147,4,images/C1f01.jpg,0
629.050995099999,5.28283719997853,Response,Trustworthy  ,0.71716280002147,4,images/C1f01.jpg,0
634.333956199989,2,Thinking,Trustworthy  ,0.71716280002147,4,images/C1f01.jpg,0
636.337048599991,2,Feedback,Trustworthy  ,0.71716280002147,4,images/C1f01.jpg,0
642.337936800002,1.55108539998764,Decision,Untrustworthy,1.55108539998764,2,images/A1f01.jpg,6
643.901935300004,4.44891460001236,Response,Untrustworthy,1.55108539998764,2,images/A1f01.jpg,6
648.351008800004,2,Thinking,Untrustworthy,1.55108539998764,2,images/A1f01.jpg,6
650.354014099983,2,Feedback,Untrustworthy,1.55108539998764,2,images/A1f01.jpg,6
660.355215999996,2.4169190999819,Decision,Trustworthy  ,2.4169190999819,2,images/C1f01.jpg,12
662.78488359999,3.5830809000181,Response,Trustworthy  ,2.4169190999819,2,images/C1f01.jpg,12
666.368218999996,2,Thinking,Trustworthy  ,2.4169190999819,2,images/C1f01.jpg,12
668.3712542,2,Feedback,Trustworthy  ,2.4169190999819,2,images/C1f01.jpg,12
676.3723207,1.41700869999477,Decision,Neutral      ,1.41700869999477,4,images/B1f01.jpg,0
677.802282399993,4.58299130000523,Response,Neutral      ,1.41700869999477,4,images/B1f01.jpg,0
682.385224700003,2,Thinking,Neutral      ,1.41700869999477,4,images/B1f01.jpg,0
684.388287599984,2,Feedback,Neutral      ,1.41700869999477,4,images/B1f01.jpg,0
692.388535200007,0.833810799987987,Decision,Neutral      ,0.833810799987987,4,images/B1f01.jpg,18
693.236066599988,5.16618920001201,Response,Neutral      ,0.833810799987987,4,images/B1f01.jpg,18
698.402398599981,2,Thinking,Neutral      ,0.833810799987987,4,images/B1f01.jpg,18
700.405325600004,2,Feedback,Neutral      ,0.833810799987987,4,images/B1f01.jpg,18
