"onset"	"duration"	"my_codes"	"trial_type"	"response_time"	"response_key"	"stim_file"	"trial_earnings"
0.00421547261066735	2.43036960763857	"Decision"	"Neutral"	2.43036960763857	2	"images/C1f01.jpg"	12
2.44960206164978	3.56963039236143	"Response"	"Neutral"	2.43036960763857	2	"images/C1f01.jpg"	12
6.01491344347596	2	"Thinking"	"Neutral"	2.43036960763857	2	"images/C1f01.jpg"	12
8.01792514557019	2	"Feedback"	"Neutral"	2.43036960763857	2	"images/C1f01.jpg"	12
14.0186032620259	1.56764439842664	"Decision"	"Neutral"	1.56764439842664	3	"images/C1f01.jpg"	15
15.5997030395083	4.43235560157336	"Response"	"Neutral"	1.56764439842664	3	"images/C1f01.jpg"	15
20.0322799391579	2	"Thinking"	"Neutral"	1.56764439842664	3	"images/C1f01.jpg"	15
22.0352666100953	2	"Feedback"	"Neutral"	1.56764439842664	3	"images/C1f01.jpg"	15
28.0357387885451	2.46713524218649	"Decision"	"Untrustworthy"	2.46713524218649	2	"images/B1f01.jpg"	6
30.5163208765443	3.53286475781351	"Response"	"Untrustworthy"	2.46713524218649	2	"images/B1f01.jpg"	6
34.0659098536707	2	"Thinking"	"Untrustworthy"	2.46713524218649	2	"images/B1f01.jpg"	6
36.0685768085532	2	"Feedback"	"Untrustworthy"	2.46713524218649	2	"images/B1f01.jpg"	6
44.0692264807876	3.3341140395496	"Decision"	"Trustworthy"	3.3341140395496	4	"images/A1f01.jpg"	18
47.4171059443615	2.6658859604504	"Response"	"Trustworthy"	3.3341140395496	4	"images/A1f01.jpg"	18
50.0830419668928	2	"Thinking"	"Trustworthy"	3.3341140395496	4	"images/A1f01.jpg"	18
52.0860457045492	2	"Feedback"	"Trustworthy"	3.3341140395496	4	"images/A1f01.jpg"	18
62.086220922647	1.81731302035041	"Decision"	"Trustworthy"	1.81731302035041	3	"images/A1f01.jpg"	15
63.9170359708369	4.18268697964959	"Response"	"Trustworthy"	1.81731302035041	3	"images/A1f01.jpg"	15
68.0998003196437	2	"Thinking"	"Trustworthy"	1.81731302035041	3	"images/A1f01.jpg"	15
70.1035094805993	2	"Feedback"	"Trustworthy"	1.81731302035041	3	"images/A1f01.jpg"	15
76.1035441828426	2.41706782858819	"Decision"	"Neutral"	2.41706782858819	3	"images/C1f01.jpg"	15
78.5341919774655	3.58293217141181	"Response"	"Neutral"	2.41706782858819	3	"images/C1f01.jpg"	15
82.1173790113535	2	"Thinking"	"Neutral"	2.41706782858819	3	"images/C1f01.jpg"	15
84.1198923659977	2	"Feedback"	"Neutral"	2.41706782858819	3	"images/C1f01.jpg"	15
92.1207001893781	0.650883770082146	"Decision"	"Untrustworthy"	0.650883770082146	1	"images/B1f01.jpg"	9
92.7851605121978	9.34911622991785	"Response"	"Untrustworthy"	0.650883770082146	1	"images/B1f01.jpg"	9
102.134290395537	2	"Thinking"	"Untrustworthy"	0.650883770082146	1	"images/B1f01.jpg"	9
102.146792315412	2	"Feedback"	"Untrustworthy"	0.650883770082146	1	"images/B1f01.jpg"	9
108.158124598209	1.36670402390882	"Decision"	"Neutral"	1.36670402390882	4	"images/C1f01.jpg"	0
109.535126663279	4.63329597609118	"Response"	"Neutral"	1.36670402390882	4	"images/C1f01.jpg"	0
114.168112025829	2	"Thinking"	"Neutral"	1.36670402390882	4	"images/C1f01.jpg"	0
116.170751105063	2	"Feedback"	"Neutral"	1.36670402390882	4	"images/C1f01.jpg"	0
122.171802413184	3.15088832122274	"Decision"	"Untrustworthy"	3.15088832122274	3	"images/B1f01.jpg"	3
125.335974877933	2.84911167877726	"Response"	"Untrustworthy"	3.15088832122274	3	"images/B1f01.jpg"	3
128.185166770127	2	"Thinking"	"Untrustworthy"	3.15088832122274	3	"images/B1f01.jpg"	3
130.188280303264	2	"Feedback"	"Untrustworthy"	3.15088832122274	3	"images/B1f01.jpg"	3
142.193698408781	0.733794323634356	"Decision"	"Untrustworthy"	0.733794323634356	1	"images/B1f01.jpg"	9
142.936245669378	9.26620567636564	"Response"	"Untrustworthy"	0.733794323634356	1	"images/B1f01.jpg"	9
152.202727826079	2	"Thinking"	"Untrustworthy"	0.733794323634356	1	"images/B1f01.jpg"	9
152.218790426617	2	"Feedback"	"Untrustworthy"	0.733794323634356	1	"images/B1f01.jpg"	9
156.222947303671	2.03385803941637	"Decision"	"Neutral"	2.03385803941637	1	"images/C1f01.jpg"	9
158.270182215376	7.96614196058363	"Response"	"Neutral"	2.03385803941637	1	"images/C1f01.jpg"	9
166.236206984846	2	"Thinking"	"Neutral"	2.03385803941637	1	"images/C1f01.jpg"	9
166.246830431046	2	"Feedback"	"Neutral"	2.03385803941637	1	"images/C1f01.jpg"	9
170.256441253703	2.36734231794253	"Decision"	"Neutral"	2.36734231794253	2	"images/C1f01.jpg"	12
172.637243501842	3.63265768205747	"Response"	"Neutral"	2.36734231794253	2	"images/C1f01.jpg"	12
176.269770339131	2	"Thinking"	"Neutral"	2.36734231794253	2	"images/C1f01.jpg"	12
178.272902077064	2	"Feedback"	"Neutral"	2.36734231794253	2	"images/C1f01.jpg"	12
184.27361830906	1.25046677398495	"Decision"	"Untrustworthy"	1.25046677398495	1	"images/B1f01.jpg"	9
185.537543875631	8.74953322601505	"Response"	"Untrustworthy"	1.25046677398495	1	"images/B1f01.jpg"	9
194.28694910137	2	"Thinking"	"Untrustworthy"	1.25046677398495	1	"images/B1f01.jpg"	9
194.30308508873	2	"Feedback"	"Untrustworthy"	1.25046677398495	1	"images/B1f01.jpg"	9
198.307386463741	0.633761327946559	"Decision"	"Untrustworthy"	0.633761327946559	1	"images/B1f01.jpg"	9
198.954433073057	9.36623867205344	"Response"	"Untrustworthy"	0.633761327946559	1	"images/B1f01.jpg"	9
208.3209505009	2	"Thinking"	"Untrustworthy"	0.633761327946559	1	"images/B1f01.jpg"	9
208.335404281504	2	"Feedback"	"Untrustworthy"	0.633761327946559	1	"images/B1f01.jpg"	9
214.341470921179	0.966994726564735	"Decision"	"Trustworthy"	0.966994726564735	4	"images/A1f01.jpg"	18
215.321837399853	5.03300527343526	"Response"	"Trustworthy"	0.966994726564735	4	"images/A1f01.jpg"	18
220.354503615294	2	"Thinking"	"Trustworthy"	0.966994726564735	4	"images/A1f01.jpg"	18
222.357600081945	2	"Feedback"	"Trustworthy"	0.966994726564735	4	"images/A1f01.jpg"	18
234.358763461467	1.11708773975261	"Decision"	"Untrustworthy"	1.11708773975261	1	"images/B1f01.jpg"	9
235.488881050842	8.88291226024739	"Response"	"Untrustworthy"	1.11708773975261	1	"images/B1f01.jpg"	9
244.371790466597	2	"Thinking"	"Untrustworthy"	1.11708773975261	1	"images/B1f01.jpg"	9
244.382808722323	2	"Feedback"	"Untrustworthy"	1.11708773975261	1	"images/B1f01.jpg"	9
248.391924610827	1.05155392200686	"Decision"	"Trustworthy"	1.05155392200686	3	"images/A1f01.jpg"	15
249.458079655888	4.94844607799314	"Response"	"Trustworthy"	1.05155392200686	3	"images/A1f01.jpg"	15
254.405255971942	2	"Thinking"	"Trustworthy"	1.05155392200686	3	"images/A1f01.jpg"	15
256.408455976518	2	"Feedback"	"Trustworthy"	1.05155392200686	3	"images/A1f01.jpg"	15
264.409198377514	1.55052480078302	"Decision"	"Trustworthy"	1.55052480078302	4	"images/A1f01.jpg"	18
265.973016992677	4.44947519921698	"Response"	"Trustworthy"	1.55052480078302	4	"images/A1f01.jpg"	18
270.422645223327	2	"Thinking"	"Trustworthy"	1.55052480078302	4	"images/A1f01.jpg"	18
272.425580694107	2	"Feedback"	"Trustworthy"	1.55052480078302	4	"images/A1f01.jpg"	18
278.426836233819	3.00030378717929	"Decision"	"Neutral"	3.00030378717929	3	"images/C1f01.jpg"	3
281.440039025852	2.99969621282071	"Response"	"Neutral"	3.00030378717929	3	"images/C1f01.jpg"	3
284.43981886562	2	"Thinking"	"Neutral"	3.00030378717929	3	"images/C1f01.jpg"	3
286.442708825227	2	"Feedback"	"Neutral"	3.00030378717929	3	"images/C1f01.jpg"	3
292.443390924018	0.950124302413315	"Decision"	"Untrustworthy"	0.950124302413315	1	"images/B1f01.jpg"	9
293.407116810093	9.04987569758669	"Response"	"Untrustworthy"	0.950124302413315	1	"images/B1f01.jpg"	9
302.456921965349	2	"Thinking"	"Untrustworthy"	0.950124302413315	1	"images/B1f01.jpg"	9
302.467706976226	2	"Feedback"	"Untrustworthy"	0.950124302413315	1	"images/B1f01.jpg"	9
306.476955416147	1.55035640951246	"Decision"	"Trustworthy"	1.55035640951246	4	"images/A1f01.jpg"	18
308.040965747088	4.44964359048754	"Response"	"Trustworthy"	1.55035640951246	4	"images/A1f01.jpg"	18
312.490403399803	2	"Thinking"	"Trustworthy"	1.55035640951246	4	"images/A1f01.jpg"	18
314.493473128416	2	"Feedback"	"Trustworthy"	1.55035640951246	4	"images/A1f01.jpg"	18
320.494822534965	1.68394195032306	"Decision"	"Trustworthy"	1.68394195032306	4	"images/A1f01.jpg"	18
322.191678850446	4.31605804967694	"Response"	"Trustworthy"	1.68394195032306	4	"images/A1f01.jpg"	18
326.507582161808	2	"Thinking"	"Trustworthy"	1.68394195032306	4	"images/A1f01.jpg"	18
328.510696264217	2	"Feedback"	"Trustworthy"	1.68394195032306	4	"images/A1f01.jpg"	18
334.512661777902	2.81535831512883	"Decision"	"Neutral"	2.81535831512883	3	"images/C1f01.jpg"	3
337.341635899153	3.18464168487117	"Response"	"Neutral"	2.81535831512883	3	"images/C1f01.jpg"	3
340.524758648593	2	"Thinking"	"Neutral"	2.81535831512883	3	"images/C1f01.jpg"	3
342.527653728146	2	"Feedback"	"Neutral"	2.81535831512883	3	"images/C1f01.jpg"	3
