"onset"	"duration"	"event"	"trial_type"	"response_time"	"response_key"	"stim_file"	"trial_earnings"
0.0143027000012808	3.8216345999972	"Decision"	"Neutral"	3.8216345999972	1	"images/C1f01.jpg"	9
3.86649549999856	6.1783654000028	"Response"	"Neutral"	3.8216345999972	1	"images/C1f01.jpg"	9
10.0492728999961	2	"Thinking"	"Neutral"	3.8216345999972	1	"images/C1f01.jpg"	9
10.0606292000011	2	"Feedback"	"Neutral"	3.8216345999972	1	"images/C1f01.jpg"	9
14.0689230999997	2.30056020000484	"Decision"	"Neutral"	2.30056020000484	2	"images/C1f01.jpg"	12
16.3833761999995	3.69943979999516	"Response"	"Neutral"	2.30056020000484	2	"images/C1f01.jpg"	12
20.0826648000075	2	"Thinking"	"Neutral"	2.30056020000484	2	"images/C1f01.jpg"	12
22.0850521999964	2	"Feedback"	"Neutral"	2.30056020000484	2	"images/C1f01.jpg"	12
28.090464199995	2.66381230000115	"Decision"	"Untrustworthy"	2.66381230000115	1	"images/A1f01.jpg"	9
30.7669431999966	7.33618769999885	"Response"	"Untrustworthy"	2.66381230000115	1	"images/A1f01.jpg"	9
38.0997754999989	2	"Thinking"	"Untrustworthy"	2.66381230000115	1	"images/A1f01.jpg"	9
38.1099551999941	2	"Feedback"	"Untrustworthy"	2.66381230000115	1	"images/A1f01.jpg"	9
46.1201946999936	3.90080029999081	"Decision"	"Neutral"	3.90080029999081	2	"images/C1f01.jpg"	12
50.0343339999963	2.09919970000919	"Response"	"Neutral"	3.90080029999081	2	"images/C1f01.jpg"	12
52.1335127000057	2	"Thinking"	"Neutral"	3.90080029999081	2	"images/C1f01.jpg"	12
54.1361171000026	2	"Feedback"	"Neutral"	3.90080029999081	2	"images/C1f01.jpg"	12
68.1427109000069	2.73219890000473	"Decision"	"Trustworthy"	2.73219890000473	3	"images/B1f01.jpg"	15
70.884876199998	3.26780109999527	"Response"	"Trustworthy"	2.73219890000473	3	"images/B1f01.jpg"	15
74.1507853999938	2	"Thinking"	"Trustworthy"	2.73219890000473	3	"images/B1f01.jpg"	15
76.1535032999964	2	"Feedback"	"Trustworthy"	2.73219890000473	3	"images/B1f01.jpg"	15
82.1540084000007	1.83384940000542	"Decision"	"Trustworthy"	1.83384940000542	4	"images/B1f01.jpg"	18
84.0018478999991	4.16615059999458	"Response"	"Trustworthy"	1.83384940000542	4	"images/B1f01.jpg"	18
88.1678035000077	2	"Thinking"	"Trustworthy"	1.83384940000542	4	"images/B1f01.jpg"	18
90.1704521000065	2	"Feedback"	"Trustworthy"	1.83384940000542	4	"images/B1f01.jpg"	18
96.1711957999942	1.78383380000014	"Decision"	"Neutral"	1.78383380000014	3	"images/C1f01.jpg"	15
97.9688672000048	4.21616619999986	"Response"	"Neutral"	1.78383380000014	3	"images/C1f01.jpg"	15
102.185073200002	2	"Thinking"	"Neutral"	1.78383380000014	3	"images/C1f01.jpg"	15
104.188115900004	2	"Feedback"	"Neutral"	1.78383380000014	3	"images/C1f01.jpg"	15
118.189280499995	1.71715699999186	"Decision"	"Untrustworthy"	1.71715699999186	2	"images/A1f01.jpg"	12
119.919447299995	4.28284300000814	"Response"	"Untrustworthy"	1.71715699999186	2	"images/A1f01.jpg"	12
124.202258599995	2	"Thinking"	"Untrustworthy"	1.71715699999186	2	"images/A1f01.jpg"	12
126.205295899999	2	"Feedback"	"Untrustworthy"	1.71715699999186	2	"images/A1f01.jpg"	12
132.205757999996	1.56714800000191	"Decision"	"Untrustworthy"	1.56714800000191	3	"images/A1f01.jpg"	3
133.786490700004	4.43285199999809	"Response"	"Untrustworthy"	1.56714800000191	3	"images/A1f01.jpg"	3
138.219172800003	2	"Thinking"	"Untrustworthy"	1.56714800000191	3	"images/A1f01.jpg"	3
140.222114100005	2	"Feedback"	"Untrustworthy"	1.56714800000191	3	"images/A1f01.jpg"	3
148.222468199994	1.5505087999918	"Decision"	"Trustworthy"	1.5505087999918	4	"images/B1f01.jpg"	18
149.7868208	4.4494912000082	"Response"	"Trustworthy"	1.5505087999918	4	"images/B1f01.jpg"	18
154.236290999994	2	"Thinking"	"Trustworthy"	1.5505087999918	4	"images/B1f01.jpg"	18
156.238282499995	2	"Feedback"	"Trustworthy"	1.5505087999918	4	"images/B1f01.jpg"	18
168.240277599994	1.98389049999241	"Decision"	"Untrustworthy"	1.98389049999241	2	"images/A1f01.jpg"	6
170.237333800003	4.01610950000759	"Response"	"Untrustworthy"	1.98389049999241	2	"images/A1f01.jpg"	6
174.253170399999	2	"Thinking"	"Untrustworthy"	1.98389049999241	2	"images/A1f01.jpg"	6
176.256102400002	2	"Feedback"	"Untrustworthy"	1.98389049999241	2	"images/A1f01.jpg"	6
182.256737600008	1.33381360000931	"Decision"	"Trustworthy"	1.33381360000931	4	"images/B1f01.jpg"	18
183.604482800001	4.66618639999069	"Response"	"Trustworthy"	1.33381360000931	4	"images/B1f01.jpg"	18
188.270621999996	2	"Thinking"	"Trustworthy"	1.33381360000931	4	"images/B1f01.jpg"	18
190.272901500008	2	"Feedback"	"Trustworthy"	1.33381360000931	4	"images/B1f01.jpg"	18
196.273904300004	1.08406000000832	"Decision"	"Untrustworthy"	1.08406000000832	1	"images/A1f01.jpg"	9
197.371605099994	8.91593999999168	"Response"	"Untrustworthy"	1.08406000000832	1	"images/A1f01.jpg"	9
206.287656800007	2	"Thinking"	"Untrustworthy"	1.08406000000832	1	"images/A1f01.jpg"	9
206.296777199997	2	"Feedback"	"Untrustworthy"	1.08406000000832	1	"images/A1f01.jpg"	9
210.307025700007	1.38399529999879	"Decision"	"Trustworthy"	1.38399529999879	4	"images/B1f01.jpg"	18
211.705216300004	4.61600470000121	"Response"	"Trustworthy"	1.38399529999879	4	"images/B1f01.jpg"	18
216.320910199996	2	"Thinking"	"Trustworthy"	1.38399529999879	4	"images/B1f01.jpg"	18
218.323491100004	2	"Feedback"	"Trustworthy"	1.38399529999879	4	"images/B1f01.jpg"	18
230.3251724	1.38380979999783	"Decision"	"Untrustworthy"	1.38380979999783	1	"images/A1f01.jpg"	9
231.722235900001	8.61619020000217	"Response"	"Untrustworthy"	1.38380979999783	1	"images/A1f01.jpg"	9
240.338533999995	2	"Thinking"	"Untrustworthy"	1.38380979999783	1	"images/A1f01.jpg"	9
240.348151900005	2	"Feedback"	"Untrustworthy"	1.38380979999783	1	"images/A1f01.jpg"	9
244.358063899999	1.2836493000068	"Decision"	"Untrustworthy"	1.2836493000068	2	"images/A1f01.jpg"	6
245.655805899994	4.7163506999932	"Response"	"Untrustworthy"	1.2836493000068	2	"images/A1f01.jpg"	6
250.371924599996	2	"Thinking"	"Untrustworthy"	1.2836493000068	2	"images/A1f01.jpg"	6
252.374398800006	2	"Feedback"	"Untrustworthy"	1.2836493000068	2	"images/A1f01.jpg"	6
258.375411600005	0.833977700007381	"Decision"	"Untrustworthy"	0.833977700007381	1	"images/A1f01.jpg"	9
259.2231913	9.16602229999262	"Response"	"Untrustworthy"	0.833977700007381	1	"images/A1f01.jpg"	9
268.389428099996	2	"Thinking"	"Untrustworthy"	0.833977700007381	1	"images/A1f01.jpg"	9
268.394411100002	2	"Feedback"	"Untrustworthy"	0.833977700007381	1	"images/A1f01.jpg"	9
272.392311000003	1.11719010000525	"Decision"	"Trustworthy"	1.11719010000525	4	"images/B1f01.jpg"	18
273.523423000006	4.88280989999475	"Response"	"Trustworthy"	1.11719010000525	4	"images/B1f01.jpg"	18
278.406218799995	2	"Thinking"	"Trustworthy"	1.11719010000525	4	"images/B1f01.jpg"	18
280.408615499997	2	"Feedback"	"Trustworthy"	1.11719010000525	4	"images/B1f01.jpg"	18
286.410452299999	1.45064369999454	"Decision"	"Neutral"	1.45064369999454	2	"images/C1f01.jpg"	12
287.873925399996	4.54935630000546	"Response"	"Neutral"	1.45064369999454	2	"images/C1f01.jpg"	12
292.423331500002	2	"Thinking"	"Neutral"	1.45064369999454	2	"images/C1f01.jpg"	12
294.425923100003	2	"Feedback"	"Neutral"	1.45064369999454	2	"images/C1f01.jpg"	12
300.426934999996	1.68338640000729	"Decision"	"Trustworthy"	1.68338640000729	3	"images/B1f01.jpg"	15
302.124194500007	4.31661359999271	"Response"	"Trustworthy"	1.68338640000729	3	"images/B1f01.jpg"	15
306.440528000006	2	"Thinking"	"Trustworthy"	1.68338640000729	3	"images/B1f01.jpg"	15
308.443513499995	2	"Feedback"	"Trustworthy"	1.68338640000729	3	"images/B1f01.jpg"	15
316.443857799997	1.85056469999836	"Decision"	"Neutral"	1.85056469999836	3	"images/C1f01.jpg"	15
318.308097800007	4.14943530000164	"Response"	"Neutral"	1.85056469999836	3	"images/C1f01.jpg"	15
322.457550899999	2	"Thinking"	"Neutral"	1.85056469999836	3	"images/C1f01.jpg"	15
324.460435500005	2	"Feedback"	"Neutral"	1.85056469999836	3	"images/C1f01.jpg"	15
330.461033	1.81704330000503	"Decision"	"Neutral"	1.81704330000503	3	"images/C1f01.jpg"	3
332.291661199997	4.18295669999497	"Response"	"Neutral"	1.81704330000503	3	"images/C1f01.jpg"	3
336.474621500005	2	"Thinking"	"Neutral"	1.81704330000503	3	"images/C1f01.jpg"	3
338.477520900007	2	"Feedback"	"Neutral"	1.81704330000503	3	"images/C1f01.jpg"	3
