"onset"	"duration"	"event"	"trial_type"	"response_time"	"response_key"	"stim_file_left"	"stim_file_right"
2.01546409341972	2	"View"	"Trustworthy"	1.68170011159964	1	"images/A9f03.jpg"	"images/silhouette.jpg"
4.01546409341972	4	"Decision"	"Trustworthy"	1.68170011159964	1	"images/A9f03.jpg"	"images/silhouette.jpg"
12.0699112648144	2	"View"	"Neutral"	1.07533789123408	1	"images/silhouette.jpg"	"images/C8f08.jpg"
14.0699112648144	4	"Decision"	"Neutral"	1.07533789123408	1	"images/silhouette.jpg"	"images/C8f08.jpg"
24.0755119711393	2	"View"	"Neutral"	1.23377615609206	2	"images/silhouette.jpg"	"images/C6f08.jpg"
26.0755119711393	4	"Decision"	"Neutral"	1.23377615609206	2	"images/silhouette.jpg"	"images/C6f08.jpg"
34.1175027618883	2	"View"	"Trustworthy"	1.36189551337156	1	"images/A5f03.jpg"	"images/silhouette.jpg"
36.1175027618883	4	"Decision"	"Trustworthy"	1.36189551337156	1	"images/A5f03.jpg"	"images/silhouette.jpg"
46.125219733105	2	"View"	"Trustworthy"	0.383809663588181	2	"images/A4f03.jpg"	"images/silhouette.jpg"
48.125219733105	4	"Decision"	"Trustworthy"	0.383809663588181	2	"images/A4f03.jpg"	"images/silhouette.jpg"
62.1490550194867	2	"View"	"Untrustworthy"	0.863393396604806	1	"images/B6f08.jpg"	"images/silhouette.jpg"
64.1490550194867	4	"Decision"	"Untrustworthy"	0.863393396604806	1	"images/B6f08.jpg"	"images/silhouette.jpg"
80.1668373331195	2	"View"	"Neutral"	1.01370110840071	2	"images/C3f04.jpg"	"images/silhouette.jpg"
82.1668373331195	4	"Decision"	"Neutral"	1.01370110840071	2	"images/C3f04.jpg"	"images/silhouette.jpg"
94.1791224782355	2	"View"	"Neutral"	0.700235064723529	1	"images/C5f03.jpg"	"images/silhouette.jpg"
96.1791224782355	4	"Decision"	"Neutral"	0.700235064723529	1	"images/C5f03.jpg"	"images/silhouette.jpg"
104.19277921319	2	"View"	"Trustworthy"	0.983794076135382	2	"images/A5f08.jpg"	"images/silhouette.jpg"
106.19277921319	4	"Decision"	"Trustworthy"	0.983794076135382	2	"images/A5f08.jpg"	"images/silhouette.jpg"
124.217030925909	2	"View"	"Untrustworthy"	0.746859451639466	2	"images/B6f08.jpg"	"images/silhouette.jpg"
126.217030925909	4	"Decision"	"Untrustworthy"	0.746859451639466	2	"images/B6f08.jpg"	"images/silhouette.jpg"
134.251639251946	2	"View"	"Untrustworthy"	0.597989889676683	2	"images/silhouette.jpg"	"images/B2f07.jpg"
136.251639251946	4	"Decision"	"Untrustworthy"	0.597989889676683	2	"images/silhouette.jpg"	"images/B2f07.jpg"
146.274540992337	2	"View"	"Neutral"	0.507695353473537	2	"images/C8f08.jpg"	"images/silhouette.jpg"
148.274540992337	4	"Decision"	"Neutral"	0.507695353473537	2	"images/C8f08.jpg"	"images/silhouette.jpg"
164.2843093751	2	"View"	"Neutral"	0.697054978460073	1	"images/C6f04.jpg"	"images/silhouette.jpg"
166.2843093751	4	"Decision"	"Neutral"	0.697054978460073	1	"images/C6f04.jpg"	"images/silhouette.jpg"
174.321449823445	2	"View"	"Untrustworthy"	0.5153019601712	2	"images/silhouette.jpg"	"images/B7f07.jpg"
176.321449823445	4	"Decision"	"Untrustworthy"	0.5153019601712	2	"images/silhouette.jpg"	"images/B7f07.jpg"
184.32864398614	2	"View"	"Random"	0.800398108083755	2	"images/silhouette.jpg"	"images/Random2.jpg"
186.32864398614	4	"Decision"	"Random"	0.800398108083755	2	"images/silhouette.jpg"	"images/Random2.jpg"
194.351879664115	2	"View"	"Neutral"	0.580110865063034	2	"images/silhouette.jpg"	"images/C6f08.jpg"
196.351879664115	4	"Decision"	"Neutral"	0.580110865063034	2	"images/silhouette.jpg"	"images/C6f08.jpg"
206.380259799887	2	"View"	"Untrustworthy"	0.587232778896578	2	"images/B5f03.jpg"	"images/silhouette.jpg"
208.380259799887	4	"Decision"	"Untrustworthy"	0.587232778896578	2	"images/B5f03.jpg"	"images/silhouette.jpg"
220.402400936582	2	"View"	"Untrustworthy"	0.646941598970443	1	"images/B8f08.jpg"	"images/silhouette.jpg"
222.402400936582	4	"Decision"	"Untrustworthy"	0.646941598970443	1	"images/B8f08.jpg"	"images/silhouette.jpg"
230.419945454923	2	"View"	"Untrustworthy"	0.463641204405576	2	"images/B5f08.jpg"	"images/silhouette.jpg"
232.419945454923	4	"Decision"	"Untrustworthy"	0.463641204405576	2	"images/B5f08.jpg"	"images/silhouette.jpg"
248.455284802592	2	"View"	"Trustworthy"	0.513329624198377	2	"images/silhouette.jpg"	"images/A8f08.jpg"
250.455284802592	4	"Decision"	"Trustworthy"	0.513329624198377	2	"images/silhouette.jpg"	"images/A8f08.jpg"
266.491256754147	2	"View"	"Neutral"	0.627662539947778	1	"images/C1f03.jpg"	"images/silhouette.jpg"
268.491256754147	4	"Decision"	"Neutral"	0.627662539947778	1	"images/C1f03.jpg"	"images/silhouette.jpg"
276.507935993141	2	"View"	"Trustworthy"	0.694836882641539	2	"images/silhouette.jpg"	"images/A4f03.jpg"
278.507935993141	4	"Decision"	"Trustworthy"	0.694836882641539	2	"images/silhouette.jpg"	"images/A4f03.jpg"
286.51568083989	2	"View"	"Trustworthy"	1.1003411054844	1	"images/silhouette.jpg"	"images/A3f08.jpg"
288.51568083989	4	"Decision"	"Trustworthy"	1.1003411054844	1	"images/silhouette.jpg"	"images/A3f08.jpg"
300.55371273635	2	"View"	"Trustworthy"	0.549963761819527	1	"images/A8f04.jpg"	"images/silhouette.jpg"
302.55371273635	4	"Decision"	"Trustworthy"	0.549963761819527	1	"images/A8f04.jpg"	"images/silhouette.jpg"
310.564831091324	2	"View"	"Neutral"	0.550579299102537	2	"images/C3f04.jpg"	"images/silhouette.jpg"
312.564831091324	4	"Decision"	"Neutral"	0.550579299102537	2	"images/C3f04.jpg"	"images/silhouette.jpg"
320.607026113081	2	"View"	"Trustworthy"	0.561765920603648	1	"images/silhouette.jpg"	"images/A6f08.jpg"
322.607026113081	4	"Decision"	"Trustworthy"	0.561765920603648	1	"images/silhouette.jpg"	"images/A6f08.jpg"
332.617197837797	2	"View"	"Neutral"	0.450179598061368	2	"images/silhouette.jpg"	"images/C5f03.jpg"
334.617197837797	4	"Decision"	"Neutral"	0.450179598061368	2	"images/silhouette.jpg"	"images/C5f03.jpg"
344.651171284262	2	"View"	"Neutral"	0.884978160378523	1	"images/C3f08.jpg"	"images/silhouette.jpg"
346.651171284262	4	"Decision"	"Neutral"	0.884978160378523	1	"images/C3f08.jpg"	"images/silhouette.jpg"
