"onset"	"duration"	"my_codes"	"trial_type"	"response_time"	"response_key"	"stim_file"	"trial_earnings"
0.0135520595504204	3.8558544874395	"Decision"	"Trustworthy"	3.8558544874395	"2"	"images/A1f01.jpg"	12
3.90052531154652	2.1441455125605	"Response"	"Trustworthy"	3.8558544874395	"2"	"images/A1f01.jpg"	12
6.03298870073922	2	"Thinking"	"Trustworthy"	3.8558544874395	"2"	"images/A1f01.jpg"	12
8.03605785367836	2	"Feedback"	"Trustworthy"	3.8558544874395	"2"	"images/A1f01.jpg"	12
16.0365613199101	NA	"Decision"	"Trustworthy"	NA	"None"	"images/A1f01.jpg"	9
20.0334967180825	6	"Response"	"Trustworthy"	NA	"None"	"images/A1f01.jpg"	9
26.033506958076	2	"Thinking"	"Trustworthy"	NA	"None"	"images/A1f01.jpg"	9
26.0420146841498	2	"Feedback"	"Trustworthy"	NA	"None"	"images/A1f01.jpg"	9
40.0609558235446	2.12668860300619	"Decision"	"Neutral"	2.12668860300619	"2"	"images/C1f01.jpg"	6
42.2010400417785	3.87331139699381	"Response"	"Neutral"	2.12668860300619	"2"	"images/C1f01.jpg"	6
46.0674650446454	2	"Thinking"	"Neutral"	2.12668860300619	"2"	"images/C1f01.jpg"	6
48.0702190334123	2	"Feedback"	"Neutral"	2.12668860300619	"2"	"images/C1f01.jpg"	6
54.0708635839692	3.08383992845484	"Decision"	"Neutral"	3.08383992845484	"1"	"images/C1f01.jpg"	9
57.168256140867	6.91616007154516	"Response"	"Neutral"	3.08383992845484	"1"	"images/C1f01.jpg"	9
64.0843371369265	2	"Thinking"	"Neutral"	3.08383992845484	"1"	"images/C1f01.jpg"	9
64.0905858071492	2	"Feedback"	"Neutral"	3.08383992845484	"1"	"images/C1f01.jpg"	9
72.08785343614	2.60042757652991	"Decision"	"Trustworthy"	2.60042757652991	"2"	"images/A1f01.jpg"	12
74.7020941919909	3.39957242347009	"Response"	"Trustworthy"	2.60042757652991	"2"	"images/A1f01.jpg"	12
78.101343486851	2	"Thinking"	"Trustworthy"	2.60042757652991	"2"	"images/A1f01.jpg"	12
80.1043455109611	2	"Feedback"	"Trustworthy"	2.60042757652991	"2"	"images/A1f01.jpg"	12
86.1049343104532	2.33386751954095	"Decision"	"Trustworthy"	2.33386751954095	"3"	"images/A1f01.jpg"	15
88.4523459251068	3.66613248045905	"Response"	"Trustworthy"	2.33386751954095	"3"	"images/A1f01.jpg"	15
92.1185899076954	2	"Thinking"	"Trustworthy"	2.33386751954095	"3"	"images/A1f01.jpg"	15
94.1215088740864	2	"Feedback"	"Trustworthy"	2.33386751954095	"3"	"images/A1f01.jpg"	15
102.128645579112	2.41348743383423	"Decision"	"Untrustworthy"	2.41348743383423	"2"	"images/B1f01.jpg"	6
104.554238958153	3.58651256616577	"Response"	"Untrustworthy"	2.41348743383423	"2"	"images/B1f01.jpg"	6
108.135685004207	2	"Thinking"	"Untrustworthy"	2.41348743383423	"2"	"images/B1f01.jpg"	6
110.138339437501	2	"Feedback"	"Untrustworthy"	2.41348743383423	"2"	"images/B1f01.jpg"	6
118.139596680878	3.83559409585723	"Decision"	"Neutral"	3.83559409585723	"1"	"images/C1f01.jpg"	9
121.988427672099	6.16440590414277	"Response"	"Neutral"	3.83559409585723	"1"	"images/C1f01.jpg"	9
128.152962145032	2	"Thinking"	"Neutral"	3.83559409585723	"1"	"images/C1f01.jpg"	9
128.162962634276	2	"Feedback"	"Neutral"	3.83559409585723	"1"	"images/C1f01.jpg"	9
140.173686749564	3.55071014339046	"Decision"	"Untrustworthy"	3.55071014339046	"2"	"images/B1f01.jpg"	6
143.737312366386	2.44928985660954	"Response"	"Untrustworthy"	3.55071014339046	"2"	"images/B1f01.jpg"	6
146.186741600643	2	"Thinking"	"Untrustworthy"	3.55071014339046	"2"	"images/B1f01.jpg"	6
148.189659429263	2	"Feedback"	"Untrustworthy"	3.55071014339046	"2"	"images/B1f01.jpg"	6
156.190336406464	NA	"Decision"	"Trustworthy"	NA	"None"	"images/A1f01.jpg"	9
160.18740321786	6	"Response"	"Trustworthy"	NA	"None"	"images/A1f01.jpg"	9
166.187466933363	2	"Thinking"	"Trustworthy"	NA	"None"	"images/A1f01.jpg"	9
166.198976683532	2	"Feedback"	"Trustworthy"	NA	"None"	"images/A1f01.jpg"	9
170.207134543249	2.21711455250625	"Decision"	"Neutral"	2.21711455250625	"2"	"images/C1f01.jpg"	12
172.438118595019	3.78288544749375	"Response"	"Neutral"	2.21711455250625	"2"	"images/C1f01.jpg"	12
176.220949429233	2	"Thinking"	"Neutral"	2.21711455250625	"2"	"images/C1f01.jpg"	12
178.223400769362	2	"Feedback"	"Neutral"	2.21711455250625	"2"	"images/C1f01.jpg"	12
184.223905373379	2.31698404949566	"Decision"	"Untrustworthy"	2.31698404949566	"2"	"images/B1f01.jpg"	6
186.555005819726	3.68301595050434	"Response"	"Untrustworthy"	2.31698404949566	"2"	"images/B1f01.jpg"	6
190.237779423755	2	"Thinking"	"Untrustworthy"	2.31698404949566	"2"	"images/B1f01.jpg"	6
192.240687581274	2	"Feedback"	"Untrustworthy"	2.31698404949566	"2"	"images/B1f01.jpg"	6
198.240667101301	3.10091340722283	"Decision"	"Neutral"	3.10091340722283	"2"	"images/C1f01.jpg"	6
201.355617829875	2.89908659277717	"Response"	"Neutral"	3.10091340722283	"2"	"images/C1f01.jpg"	6
204.254938235783	2	"Thinking"	"Neutral"	3.10091340722283	"2"	"images/C1f01.jpg"	6
206.257408349236	2	"Feedback"	"Neutral"	3.10091340722283	"2"	"images/C1f01.jpg"	6
212.258581397124	2.08386780398723	"Decision"	"Trustworthy"	2.08386780398723	"2"	"images/A1f01.jpg"	12
214.355942665148	3.91613219601277	"Response"	"Trustworthy"	2.08386780398723	"2"	"images/A1f01.jpg"	12
218.271966772358	2	"Thinking"	"Trustworthy"	2.08386780398723	"2"	"images/A1f01.jpg"	12
220.274492636876	2	"Feedback"	"Trustworthy"	2.08386780398723	"2"	"images/A1f01.jpg"	12
226.275227071805	0.917081101870281	"Decision"	"Untrustworthy"	0.917081101870281	"1"	"images/B1f01.jpg"	9
227.206135575208	9.08291889812972	"Response"	"Untrustworthy"	0.917081101870281	"1"	"images/B1f01.jpg"	9
236.289402633047	2	"Thinking"	"Untrustworthy"	0.917081101870281	"1"	"images/B1f01.jpg"	9
236.299054962583	2	"Feedback"	"Untrustworthy"	0.917081101870281	"1"	"images/B1f01.jpg"	9
240.308889905296	0.867148060031468	"Decision"	"Untrustworthy"	0.867148060031468	"1"	"images/B1f01.jpg"	9
241.190064477807	9.13285193996853	"Response"	"Untrustworthy"	0.867148060031468	"1"	"images/B1f01.jpg"	9
250.322948275527	2	"Thinking"	"Untrustworthy"	0.867148060031468	"1"	"images/B1f01.jpg"	9
250.334655429979	2	"Feedback"	"Untrustworthy"	0.867148060031468	"1"	"images/B1f01.jpg"	9
254.326031650678	1.23362084953988	"Decision"	"Neutral"	1.23362084953988	"1"	"images/C1f01.jpg"	9
255.573478763967	8.76637915046012	"Response"	"Neutral"	1.23362084953988	"1"	"images/C1f01.jpg"	9
264.339961452119	2	"Thinking"	"Neutral"	1.23362084953988	"1"	"images/C1f01.jpg"	9
264.349472128451	2	"Feedback"	"Neutral"	1.23362084953988	"1"	"images/C1f01.jpg"	9
270.359712688602	1.6175664774637	"Decision"	"Trustworthy"	1.6175664774637	"4"	"images/A1f01.jpg"	18
271.991080398715	4.3824335225363	"Response"	"Trustworthy"	1.6175664774637	"4"	"images/A1f01.jpg"	18
276.373529850141	2	"Thinking"	"Trustworthy"	1.6175664774637	"4"	"images/A1f01.jpg"	18
278.376124550152	2	"Feedback"	"Trustworthy"	1.6175664774637	"4"	"images/A1f01.jpg"	18
284.376860691744	0.933764323184732	"Decision"	"Untrustworthy"	0.933764323184732	"1"	"images/B1f01.jpg"	9
285.324484274213	9.06623567681527	"Response"	"Untrustworthy"	0.933764323184732	"1"	"images/B1f01.jpg"	9
294.390816662053	2	"Thinking"	"Untrustworthy"	0.933764323184732	"1"	"images/B1f01.jpg"	9
294.400271018429	2	"Feedback"	"Untrustworthy"	0.933764323184732	"1"	"images/B1f01.jpg"	9
300.41081195166	1.70055364219297	"Decision"	"Trustworthy"	1.70055364219297	"3"	"images/A1f01.jpg"	15
302.125053617725	4.29944635780703	"Response"	"Trustworthy"	1.70055364219297	"3"	"images/A1f01.jpg"	15
306.424414073394	2	"Thinking"	"Trustworthy"	1.70055364219297	"3"	"images/A1f01.jpg"	15
308.427010480067	2	"Feedback"	"Trustworthy"	1.70055364219297	"3"	"images/A1f01.jpg"	15
316.42742576859	0.867440468660789	"Decision"	"Untrustworthy"	0.867440468660789	"1"	"images/B1f01.jpg"	9
317.308781816508	9.13255953133921	"Response"	"Untrustworthy"	0.867440468660789	"1"	"images/B1f01.jpg"	9
326.44165025423	2	"Thinking"	"Untrustworthy"	0.867440468660789	"1"	"images/B1f01.jpg"	9
326.452532520503	2	"Feedback"	"Untrustworthy"	0.867440468660789	"1"	"images/B1f01.jpg"	9
332.461582397227	0.883838108013151	"Decision"	"Untrustworthy"	0.883838108013151	"1"	"images/B1f01.jpg"	9
333.35913356021	9.11616189198685	"Response"	"Untrustworthy"	0.883838108013151	"1"	"images/B1f01.jpg"	9
342.475354616588	2	"Thinking"	"Untrustworthy"	0.883838108013151	"1"	"images/B1f01.jpg"	9
342.481746077799	2	"Feedback"	"Untrustworthy"	0.883838108013151	"1"	"images/B1f01.jpg"	9
