onset,duration,event,trial_type,response_time,response_key,stim_file,trial_earnings
0,2.56098629999906,Decision,Trustworthy,2.56098629999906,3,images/B1f01.jpg,15
2.5933362999931,3.43901370000094,Response,Trustworthy,2.56098629999906,3,images/B1f01.jpg,15
6.02576570003294,2,Thinking,Trustworthy,2.56098629999906,3,images/B1f01.jpg,15
8.02852419996634,2,Feedback,Trustworthy,2.56098629999906,3,images/B1f01.jpg,15
14.0289841999765,2.81767789996229,Decision,Trustworthy,2.81767789996229,4,images/B1f01.jpg,18
16.8605152000673,3.18232210003771,Response,Trustworthy,2.81767789996229,4,images/B1f01.jpg,18
20.0430695000104,2,Thinking,Trustworthy,2.81767789996229,4,images/B1f01.jpg,18
22.0454849000088,2,Feedback,Trustworthy,2.81767789996229,4,images/B1f01.jpg,18
28.0515412001405,1.91353269992396,Decision,Untrustworthy,1.91353269992396,3,images/A1f01.jpg,3
29.9776266000699,4.08646730007604,Response,Untrustworthy,1.91353269992396,3,images/A1f01.jpg,3
34.0601154000032,2,Thinking,Untrustworthy,1.91353269992396,3,images/A1f01.jpg,3
36.0629106000997,2,Feedback,Untrustworthy,1.91353269992396,3,images/A1f01.jpg,3
46.0667094001546,1.71687050000764,Decision,Trustworthy,1.71687050000764,4,images/B1f01.jpg,18
47.7941596000455,4.28312949999236,Response,Trustworthy,1.71687050000764,4,images/B1f01.jpg,18
52.0772685999982,2,Thinking,Trustworthy,1.71687050000764,4,images/B1f01.jpg,18
54.0796157000586,2,Feedback,Trustworthy,1.71687050000764,4,images/B1f01.jpg,18
68.0810547999572,1.51700369990431,Decision,Trustworthy,1.51700369990431,4,images/B1f01.jpg,18
69.611458600033,4.48299630009569,Response,Trustworthy,1.51700369990431,4,images/B1f01.jpg,18
74.0945067000575,2,Thinking,Trustworthy,1.51700369990431,4,images/B1f01.jpg,18
76.0969432001002,2,Feedback,Trustworthy,1.51700369990431,4,images/B1f01.jpg,18
82.0973819000646,1.45045490004122,Decision,Untrustworthy,1.45045490004122,1,images/A1f01.jpg,9
83.5619666001293,8.54954509995878,Response,Untrustworthy,1.45045490004122,1,images/A1f01.jpg,9
92.1115264000836,2,Thinking,Untrustworthy,1.45045490004122,1,images/A1f01.jpg,9
92.1252183001488,2,Feedback,Untrustworthy,1.45045490004122,1,images/A1f01.jpg,9
96.1314610000699,1.80041659995914,Decision,Untrustworthy,1.80041659995914,1,images/A1f01.jpg,9
97.9456784999929,8.19958340004086,Response,Untrustworthy,1.80041659995914,1,images/A1f01.jpg,9
106.145432100166,2,Thinking,Untrustworthy,1.80041659995914,1,images/A1f01.jpg,9
106.150251999964,2,Feedback,Untrustworthy,1.80041659995914,1,images/A1f01.jpg,9
118.154733200092,1.64815640007146,Decision,Neutral,1.64815640007146,2,images/C1f01.jpg,6
119.81300970004,4.35184359992854,Response,Neutral,1.64815640007146,2,images/C1f01.jpg,6
124.162451799959,2,Thinking,Neutral,1.64815640007146,2,images/C1f01.jpg,6
126.164857099997,2,Feedback,Neutral,1.64815640007146,2,images/C1f01.jpg,6
132.165300100111,1.26699289982207,Decision,Trustworthy,1.26699289982207,4,images/B1f01.jpg,18
133.446585200029,4.73300710017793,Response,Trustworthy,1.26699289982207,4,images/B1f01.jpg,18
138.179509800161,2,Thinking,Trustworthy,1.26699289982207,4,images/B1f01.jpg,18
140.181783000008,2,Feedback,Trustworthy,1.26699289982207,4,images/B1f01.jpg,18
148.182739099954,1.48362189996988,Decision,Neutral,1.48362189996988,1,images/C1f01.jpg,9
149.680216700072,8.51637810003012,Response,Neutral,1.48362189996988,1,images/C1f01.jpg,9
158.196650100174,2,Thinking,Neutral,1.48362189996988,1,images/C1f01.jpg,9
158.209378600121,2,Feedback,Neutral,1.48362189996988,1,images/C1f01.jpg,9
168.217119200156,1.78346239984967,Decision,Neutral,1.78346239984967,1,images/C1f01.jpg,9
170.014014200075,8.21653760015033,Response,Neutral,1.78346239984967,1,images/C1f01.jpg,9
178.230468800059,2,Thinking,Neutral,1.78346239984967,1,images/C1f01.jpg,9
178.235993700102,2,Feedback,Neutral,1.78346239984967,1,images/C1f01.jpg,9
182.233356400161,1.85051289992407,Decision,Untrustworthy,1.85051289992407,2,images/A1f01.jpg,6
184.098255299964,4.14948710007593,Response,Untrustworthy,1.85051289992407,2,images/A1f01.jpg,6
188.247561000055,2,Thinking,Untrustworthy,1.85051289992407,2,images/A1f01.jpg,6
190.249825899955,2,Feedback,Untrustworthy,1.85051289992407,2,images/A1f01.jpg,6
196.250646400033,1.35080750007182,Decision,Neutral,1.35080750007182,1,images/C1f01.jpg,9
197.615893300158,8.64919249992818,Response,Neutral,1.35080750007182,1,images/C1f01.jpg,9
206.264650200028,2,Thinking,Neutral,1.35080750007182,1,images/C1f01.jpg,9
206.274680500152,2,Feedback,Neutral,1.35080750007182,1,images/C1f01.jpg,9
210.28439590009,1.36719530005939,Decision,Neutral,1.36719530005939,1,images/C1f01.jpg,9
211.665486400016,8.63280469994061,Response,Neutral,1.36719530005939,1,images/C1f01.jpg,9
220.298359900015,2,Thinking,Neutral,1.36719530005939,1,images/C1f01.jpg,9
220.306504599983,2,Feedback,Neutral,1.36719530005939,1,images/C1f01.jpg,9
230.318430799991,1.3672556001693,Decision,Untrustworthy,1.3672556001693,1,images/A1f01.jpg,9
231.699228600134,8.6327443998307,Response,Untrustworthy,1.3672556001693,1,images/A1f01.jpg,9
240.332321200055,2,Thinking,Untrustworthy,1.3672556001693,1,images/A1f01.jpg,9
240.342022200115,2,Feedback,Untrustworthy,1.3672556001693,1,images/A1f01.jpg,9
244.351808300009,1.30069969990291,Decision,Untrustworthy,1.30069969990291,1,images/A1f01.jpg,9
245.666437500157,8.69930030009709,Response,Untrustworthy,1.30069969990291,1,images/A1f01.jpg,9
254.365997400135,2,Thinking,Untrustworthy,1.30069969990291,1,images/A1f01.jpg,9
254.374184099958,2,Feedback,Untrustworthy,1.30069969990291,1,images/A1f01.jpg,9
258.368966100039,1.90020489995368,Decision,Neutral,1.90020489995368,2,images/C1f01.jpg,12
260.28314090008,4.09979510004632,Response,Neutral,1.90020489995368,2,images/C1f01.jpg,12
264.38288759999,2,Thinking,Neutral,1.90020489995368,2,images/C1f01.jpg,12
266.385350600118,2,Feedback,Neutral,1.90020489995368,2,images/C1f01.jpg,12
272.386073100148,2.03354480001144,Decision,Neutral,2.03354480001144,2,images/C1f01.jpg,12
274.433539200109,3.96645519998856,Response,Neutral,2.03354480001144,2,images/C1f01.jpg,12
278.39996680012,2,Thinking,Neutral,2.03354480001144,2,images/C1f01.jpg,12
280.402347499971,2,Feedback,Neutral,2.03354480001144,2,images/C1f01.jpg,12
286.403106400045,1.10041180020198,Decision,Trustworthy,1.10041180020198,4,images/B1f01.jpg,18
287.517369700131,4.89958819979802,Response,Trustworthy,1.10041180020198,4,images/B1f01.jpg,18
292.416998100002,2,Thinking,Trustworthy,1.10041180020198,4,images/B1f01.jpg,18
294.419393100078,2,Feedback,Trustworthy,1.10041180020198,4,images/B1f01.jpg,18
300.420250100084,1.70053359982558,Decision,Untrustworthy,1.70053359982558,2,images/A1f01.jpg,6
302.134555500001,4.29946640017442,Response,Untrustworthy,1.70053359982558,2,images/A1f01.jpg,6
306.433867300163,2,Thinking,Untrustworthy,1.70053359982558,2,images/A1f01.jpg,6
308.436808000086,2,Feedback,Untrustworthy,1.70053359982558,2,images/A1f01.jpg,6
316.437097799965,1.08368389983661,Decision,Neutral,1.08368389983661,3,images/C1f01.jpg,15
317.53477820009,4.91631610016339,Response,Neutral,1.08368389983661,3,images/C1f01.jpg,15
322.451124400134,2,Thinking,Neutral,1.08368389983661,3,images/C1f01.jpg,15
324.453515300062,2,Feedback,Neutral,1.08368389983661,3,images/C1f01.jpg,15
330.454100500094,1.30052970000543,Decision,Untrustworthy,1.30052970000543,1,images/A1f01.jpg,9
331.76867790008,8.69947029999457,Response,Untrustworthy,1.30052970000543,1,images/A1f01.jpg,9
340.468173400034,2,Thinking,Untrustworthy,1.30052970000543,1,images/A1f01.jpg,9
340.479256800144,2,Feedback,Untrustworthy,1.30052970000543,1,images/A1f01.jpg,9
349.979955700226,2.26720639993437,Decision,Untrustworthy,2.26720639993437,2,images/A1f01.jpg,6
352.260003800271,3.73279360006563,Response,Untrustworthy,2.26720639993437,2,images/A1f01.jpg,6
355.992452200269,2,Thinking,Untrustworthy,2.26720639993437,2,images/A1f01.jpg,6
357.995133900316,2,Feedback,Untrustworthy,2.26720639993437,2,images/A1f01.jpg,6
365.996447300306,2.30063350009732,Decision,Untrustworthy,2.30063350009732,1,images/A1f01.jpg,9
368.310294700321,7.69936649990268,Response,Untrustworthy,2.30063350009732,1,images/A1f01.jpg,9
376.009943700163,2,Thinking,Untrustworthy,2.30063350009732,1,images/A1f01.jpg,9
376.015301100211,2,Feedback,Untrustworthy,2.30063350009732,1,images/A1f01.jpg,9
380.012779200217,1.15057309996337,Decision,Trustworthy,1.15057309996337,4,images/B1f01.jpg,18
381.177246600157,4.84942690003663,Response,Trustworthy,1.15057309996337,4,images/B1f01.jpg,18
386.026645000326,2,Thinking,Trustworthy,1.15057309996337,4,images/B1f01.jpg,18
388.02945950022,2,Feedback,Trustworthy,1.15057309996337,4,images/B1f01.jpg,18
394.02995530027,1.35043599992059,Decision,Trustworthy,1.35043599992059,4,images/B1f01.jpg,18
395.394317000173,4.64956400007941,Response,Trustworthy,1.35043599992059,4,images/B1f01.jpg,18
400.043904000195,2,Thinking,Trustworthy,1.35043599992059,4,images/B1f01.jpg,18
402.046280700248,2,Feedback,Trustworthy,1.35043599992059,4,images/B1f01.jpg,18
410.047015200136,1.03365279990248,Decision,Neutral,1.03365279990248,3,images/C1f01.jpg,3
411.094815500313,4.96634720009752,Response,Neutral,1.03365279990248,3,images/C1f01.jpg,3
416.060938200215,2,Thinking,Neutral,1.03365279990248,3,images/C1f01.jpg,3
418.064044800121,2,Feedback,Neutral,1.03365279990248,3,images/C1f01.jpg,3
424.06456140033,1.03395620011725,Decision,Trustworthy,1.03395620011725,4,images/B1f01.jpg,18
425.111956700217,4.96604379988275,Response,Trustworthy,1.03395620011725,4,images/B1f01.jpg,18
430.077865700237,2,Thinking,Trustworthy,1.03395620011725,4,images/B1f01.jpg,18
432.080876000226,2,Feedback,Trustworthy,1.03395620011725,4,images/B1f01.jpg,18
438.08140250016,1.16681870003231,Decision,Untrustworthy,1.16681870003231,1,images/A1f01.jpg,9
439.261807400268,8.83318129996769,Response,Untrustworthy,1.16681870003231,1,images/A1f01.jpg,9
448.095204100246,2,Thinking,Untrustworthy,1.16681870003231,1,images/A1f01.jpg,9
448.106909100199,2,Feedback,Untrustworthy,1.16681870003231,1,images/A1f01.jpg,9
452.115127300146,0.983952099923044,Decision,Trustworthy,0.983952099923044,4,images/B1f01.jpg,18
453.112571700244,5.01604790007696,Response,Trustworthy,0.983952099923044,4,images/B1f01.jpg,18
458.128690100275,2,Thinking,Trustworthy,0.983952099923044,4,images/B1f01.jpg,18
460.131449300331,2,Feedback,Trustworthy,0.983952099923044,4,images/B1f01.jpg,18
468.132575900294,1.26722959987819,Decision,Untrustworthy,1.26722959987819,1,images/A1f01.jpg,9
469.413026500261,8.73277040012181,Response,Untrustworthy,1.26722959987819,1,images/A1f01.jpg,9
478.146013700171,2,Thinking,Untrustworthy,1.26722959987819,1,images/A1f01.jpg,9
478.156735500321,2,Feedback,Untrustworthy,1.26722959987819,1,images/A1f01.jpg,9
492.166306900327,1.50060039991513,Decision,Untrustworthy,1.50060039991513,1,images/A1f01.jpg,9
493.680283300346,8.49939960008487,Response,Untrustworthy,1.50060039991513,1,images/A1f01.jpg,9
502.180115300231,2,Thinking,Untrustworthy,1.50060039991513,1,images/A1f01.jpg,9
502.187943700236,2,Feedback,Untrustworthy,1.50060039991513,1,images/A1f01.jpg,9
506.183381500189,1.3502720000688,Decision,Neutral,1.3502720000688,4,images/C1f01.jpg,18
507.54717550031,4.6497279999312,Response,Neutral,1.3502720000688,4,images/C1f01.jpg,18
512.196869100212,2,Thinking,Neutral,1.3502720000688,4,images/C1f01.jpg,18
514.199769700179,2,Feedback,Neutral,1.3502720000688,4,images/C1f01.jpg,18
520.200337800198,2.76704640011303,Decision,Neutral,2.76704640011303,2,images/C1f01.jpg,12
522.980987800286,3.23295359988697,Response,Neutral,2.76704640011303,2,images/C1f01.jpg,12
526.213789100294,2,Thinking,Neutral,2.76704640011303,2,images/C1f01.jpg,12
528.216760200216,2,Feedback,Neutral,2.76704640011303,2,images/C1f01.jpg,12
536.217463000212,3.0669501000084,Decision,Neutral,3.0669501000084,2,images/C1f01.jpg,12
539.297992900247,2.9330498999916,Response,Neutral,3.0669501000084,2,images/C1f01.jpg,12
542.231024600333,2,Thinking,Neutral,3.0669501000084,2,images/C1f01.jpg,12
544.233836500207,2,Feedback,Neutral,3.0669501000084,2,images/C1f01.jpg,12
552.234500400257,1.06734859989956,Decision,Trustworthy,1.06734859989956,4,images/B1f01.jpg,18
553.315239700256,4.93265140010044,Response,Trustworthy,1.06734859989956,4,images/B1f01.jpg,18
558.248089600122,2,Thinking,Trustworthy,1.06734859989956,4,images/B1f01.jpg,18
560.251124900301,2,Feedback,Trustworthy,1.06734859989956,4,images/B1f01.jpg,18
572.25227630022,1.10059430007823,Decision,Trustworthy,1.10059430007823,4,images/B1f01.jpg,18
573.365808600327,4.89940569992177,Response,Trustworthy,1.10059430007823,4,images/B1f01.jpg,18
578.265191000188,2,Thinking,Trustworthy,1.10059430007823,4,images/B1f01.jpg,18
580.268234500196,2,Feedback,Trustworthy,1.10059430007823,4,images/B1f01.jpg,18
586.268894700333,1.03361840010621,Decision,Trustworthy,1.03361840010621,4,images/B1f01.jpg,18
587.316011100309,4.96638159989379,Response,Trustworthy,1.03361840010621,4,images/B1f01.jpg,18
592.28216160019,2,Thinking,Trustworthy,1.03361840010621,4,images/B1f01.jpg,18
594.285202900181,2,Feedback,Trustworthy,1.03361840010621,4,images/B1f01.jpg,18
600.286082900129,1.58387910015881,Decision,Untrustworthy,1.58387910015881,1,images/A1f01.jpg,9
601.883224200225,8.41612089984119,Response,Untrustworthy,1.58387910015881,1,images/A1f01.jpg,9
610.29941380024,2,Thinking,Untrustworthy,1.58387910015881,1,images/A1f01.jpg,9
610.309861500282,2,Feedback,Untrustworthy,1.58387910015881,1,images/A1f01.jpg,9
614.31936810026,1.71706759999506,Decision,Neutral,1.71706759999506,3,images/C1f01.jpg,15
616.050001900178,4.28293240000494,Response,Neutral,1.71706759999506,3,images/C1f01.jpg,15
620.333111000248,2,Thinking,Neutral,1.71706759999506,3,images/C1f01.jpg,15
622.335992200301,2,Feedback,Neutral,1.71706759999506,3,images/C1f01.jpg,15
628.336460300256,0.933413099963218,Decision,Trustworthy,0.933413099963218,4,images/B1f01.jpg,0
629.283617000329,5.06658690003678,Response,Trustworthy,0.933413099963218,4,images/B1f01.jpg,0
634.350163200172,2,Thinking,Trustworthy,0.933413099963218,4,images/B1f01.jpg,0
636.353116400307,2,Feedback,Trustworthy,0.933413099963218,4,images/B1f01.jpg,0
642.353650900302,1.46708089997992,Decision,Neutral,1.46708089997992,3,images/C1f01.jpg,15
643.834333500127,4.53291910002008,Response,Neutral,1.46708089997992,3,images/C1f01.jpg,15
648.367116200272,2,Thinking,Neutral,1.46708089997992,3,images/C1f01.jpg,15
650.370137300343,2,Feedback,Neutral,1.46708089997992,3,images/C1f01.jpg,15
660.372453700286,0.983924600062892,Decision,Untrustworthy,0.983924600062892,2,images/A1f01.jpg,6
661.368180100341,5.01607539993711,Response,Untrustworthy,0.983924600062892,2,images/A1f01.jpg,6
666.384187300224,2,Thinking,Untrustworthy,0.983924600062892,2,images/A1f01.jpg,6
668.387399400119,2,Feedback,Untrustworthy,0.983924600062892,2,images/A1f01.jpg,6
676.388136300259,1.08427249989472,Decision,Trustworthy,1.08427249989472,4,images/B1f01.jpg,18
677.48554060026,4.91572750010528,Response,Trustworthy,1.08427249989472,4,images/B1f01.jpg,18
682.40115970024,2,Thinking,Trustworthy,1.08427249989472,4,images/B1f01.jpg,18
684.404548000311,2,Feedback,Trustworthy,1.08427249989472,4,images/B1f01.jpg,18
692.409064800245,1.09862179984339,Decision,Neutral,1.09862179984339,4,images/C1f01.jpg,18
693.518907400314,4.90137820015661,Response,Neutral,1.09862179984339,4,images/C1f01.jpg,18
698.418518900173,2,Thinking,Neutral,1.09862179984339,4,images/C1f01.jpg,18
700.421496700263,2,Feedback,Neutral,1.09862179984339,4,images/C1f01.jpg,18
