"trial_number","trial_type","response_key","response_time","trial_earnings","id","grp","amount_shared","agegrp","respond"
1,"Trustworthy","2",2.40173682034947,12,"sub-1004",1,3,"Younger",1
2,"Untrustworthy","3",2.51287738722749,3,"sub-1004",1,6,"Younger",1
3,"Trustworthy","2",2.0503962317016,12,"sub-1004",1,3,"Younger",1
4,"Neutral","2",1.94376980443485,6,"sub-1004",1,3,"Younger",1
5,"Untrustworthy","3",1.63334490079433,3,"sub-1004",1,6,"Younger",1
6,"Neutral","2",1.7339979861863,12,"sub-1004",1,3,"Younger",1
7,"Neutral","3",1.81738640693948,15,"sub-1004",1,6,"Younger",1
8,"Untrustworthy","2",3.00170098035596,6,"sub-1004",1,3,"Younger",1
9,"Neutral","2",2.55038257851265,12,"sub-1004",1,3,"Younger",1
10,"Untrustworthy","2",2.10057116532698,6,"sub-1004",1,3,"Younger",1
11,"Untrustworthy","1",0.967289411230013,9,"sub-1004",1,0,"Younger",1
12,"Neutral","4",2.06708517973311,18,"sub-1004",1,9,"Younger",1
13,"Untrustworthy","1",2.0006604809314,9,"sub-1004",1,0,"Younger",1
14,"Untrustworthy","3",2.30039310292341,3,"sub-1004",1,6,"Younger",1
15,"Neutral","4",1.33392175473273,18,"sub-1004",1,9,"Younger",1
16,"Trustworthy","3",2.20062407199293,15,"sub-1004",1,6,"Younger",1
17,"Trustworthy","3",1.93373231450096,15,"sub-1004",1,6,"Younger",1
18,"Neutral","4",1.36752663832158,0,"sub-1004",1,9,"Younger",1
19,"Neutral","1",1.23421359527856,9,"sub-1004",1,0,"Younger",1
20,"Trustworthy","3",2.40051655168645,15,"sub-1004",1,6,"Younger",1
21,"Trustworthy","4",1.55064654326998,18,"sub-1004",1,9,"Younger",1
22,"Untrustworthy","1",1.51610071631148,9,"sub-1004",1,0,"Younger",1
23,"Neutral","3",2.58396470593289,15,"sub-1004",1,6,"Younger",1
24,"Untrustworthy","2",1.8502642493695,6,"sub-1004",1,3,"Younger",1
25,"Untrustworthy","2",1.90056433854625,6,"sub-1004",1,3,"Younger",1
26,"Neutral","3",2.46696514403448,15,"sub-1004",1,6,"Younger",1
27,"Trustworthy","4",1.28376843919978,18,"sub-1004",1,9,"Younger",1
28,"Untrustworthy","1",1.21696884208359,9,"sub-1004",1,0,"Younger",1
29,"Trustworthy","4",1.60052508511581,18,"sub-1004",1,9,"Younger",1
30,"Trustworthy","4",1.63472104491666,18,"sub-1004",1,9,"Younger",1
31,"Neutral","4",1.80064739659429,18,"sub-1004",1,9,"Younger",1
32,"Trustworthy","4",1.35033137816936,0,"sub-1004",1,9,"Younger",1
33,"Untrustworthy","1",1.3505390228238,9,"sub-1004",1,0,"Younger",1
34,"Neutral","4",1.48349025193602,18,"sub-1004",1,9,"Younger",1
35,"Trustworthy","2",1.01724646007642,12,"sub-1004",1,3,"Younger",1
36,"Untrustworthy","1",1.00064796535298,9,"sub-1004",1,0,"Younger",1
37,"Neutral","4",1.55062037403695,18,"sub-1004",1,9,"Younger",1
38,"Untrustworthy","1",1.08382646599784,9,"sub-1004",1,0,"Younger",1
39,"Neutral","4",0.850513991899788,18,"sub-1004",1,9,"Younger",1
40,"Trustworthy","3",1.7504252451472,15,"sub-1004",1,6,"Younger",1
41,"Neutral","4",0.967047633137554,0,"sub-1004",1,9,"Younger",1
42,"Trustworthy","4",1.45082915667444,18,"sub-1004",1,9,"Younger",1
43,"Untrustworthy","2",2.26731046009809,6,"sub-1004",1,3,"Younger",1
44,"Trustworthy","4",2.06722057564184,18,"sub-1004",1,9,"Younger",1
45,"Trustworthy","4",1.10053532524034,0,"sub-1004",1,9,"Younger",1
1,"Neutral","1",3.05027392040938,9,"sub-1005",1,0,"Younger",1
2,"Neutral","2",2.63373800349655,6,"sub-1005",1,3,"Younger",1
3,"Neutral","1",2.78352495434228,9,"sub-1005",1,0,"Younger",1
4,"Neutral","1",0.800504605169408,9,"sub-1005",1,0,"Younger",1
5,"Untrustworthy","2",2.5289513656171,6,"sub-1005",1,3,"Younger",1
6,"Untrustworthy","2",1.55042695172597,6,"sub-1005",1,3,"Younger",1
7,"Untrustworthy","1",0.550074240076356,9,"sub-1005",1,0,"Younger",1
8,"Trustworthy","3",2.22984338464448,15,"sub-1005",1,6,"Younger",1
9,"Untrustworthy","1",2.76847839070251,9,"sub-1005",1,0,"Younger",1
10,"Neutral","2",1.76704649534076,12,"sub-1005",1,3,"Younger",1
11,"Untrustworthy","2",2.05130929959705,6,"sub-1005",1,3,"Younger",1
12,"Trustworthy","2",2.20113721053349,12,"sub-1005",1,3,"Younger",1
13,"Untrustworthy","1",1.20042723615188,9,"sub-1005",1,0,"Younger",1
14,"Neutral","3",2.66708631761139,15,"sub-1005",1,6,"Younger",1
15,"Trustworthy","4",2.53363446565345,18,"sub-1005",1,9,"Younger",1
16,"Neutral","1",0.600386276084464,9,"sub-1005",1,0,"Younger",1
17,"Trustworthy","2",1.50066730764229,12,"sub-1005",1,3,"Younger",1
18,"Neutral","3",1.61682548170211,3,"sub-1005",1,6,"Younger",1
19,"Trustworthy","3",3.00056206306908,15,"sub-1005",1,6,"Younger",1
20,"Neutral","3",1.58370472345268,3,"sub-1005",1,6,"Younger",1
21,"Trustworthy","4",2.21706157096196,18,"sub-1005",1,9,"Younger",1
22,"Untrustworthy","1",1.00055352965137,9,"sub-1005",1,0,"Younger",1
23,"Trustworthy","3",3.23368168348679,15,"sub-1005",1,6,"Younger",1
24,"Trustworthy","3",2.21725385566242,15,"sub-1005",1,6,"Younger",1
25,"Neutral","2",1.26708005985711,12,"sub-1005",1,3,"Younger",1
26,"Trustworthy","4",1.78396470606094,18,"sub-1005",1,9,"Younger",1
27,"Trustworthy","3",2.00054385856492,15,"sub-1005",1,6,"Younger",1
28,"Neutral","2",0.982990198011976,12,"sub-1005",1,3,"Younger",1
29,"Untrustworthy","2",1.73473469831515,6,"sub-1005",1,3,"Younger",1
30,"Trustworthy","3",1.71715657552704,15,"sub-1005",1,6,"Younger",1
31,"Untrustworthy","1",0.96724219340831,9,"sub-1005",1,0,"Younger",1
32,"Neutral","2",3.26663518807618,6,"sub-1005",1,3,"Younger",1
33,"Neutral","1",1.13353718543658,9,"sub-1005",1,0,"Younger",1
34,"Trustworthy","4",0.700460800668225,18,"sub-1005",1,9,"Younger",1
35,"Untrustworthy","1",0.750401920580771,9,"sub-1005",1,0,"Younger",1
36,"Trustworthy","4",1.4336714434321,18,"sub-1005",1,9,"Younger",1
37,"Neutral","1",1.95053048961563,9,"sub-1005",1,0,"Younger",1
38,"Untrustworthy","1",0.917432487010956,9,"sub-1005",1,0,"Younger",1
39,"Untrustworthy","1",1.20033450715709,9,"sub-1005",1,0,"Younger",1
40,"Neutral","1",2.36710338434204,9,"sub-1005",1,0,"Younger",1
41,"Untrustworthy","1",0.71701378421858,9,"sub-1005",1,0,"Younger",1
42,"Untrustworthy","1",0.666924752935302,9,"sub-1005",1,0,"Younger",1
43,"Untrustworthy","1",0.734164101944771,9,"sub-1005",1,0,"Younger",1
44,"Trustworthy","4",1.11828411486931,18,"sub-1005",1,9,"Younger",1
45,"Trustworthy","4",1.15048611623934,0,"sub-1005",1,9,"Younger",1
1,"Neutral","2",2.45488704694435,12,"sub-1006",1,3,"Younger",1
2,"Neutral","1",2.33402472396847,9,"sub-1006",1,0,"Younger",1
3,"Untrustworthy","3",3.09430086304201,3,"sub-1006",1,6,"Younger",1
4,"Neutral","3",2.75045198289445,3,"sub-1006",1,6,"Younger",1
5,"Trustworthy","2",1.73260705085704,12,"sub-1006",1,3,"Younger",1
6,"Neutral","1",0.766998139733914,9,"sub-1006",1,0,"Younger",1
7,"Trustworthy","3",1.56708631763468,15,"sub-1006",1,6,"Younger",1
8,"Neutral","4",2.23478988057468,18,"sub-1006",1,9,"Younger",1
9,"Untrustworthy","1",3.11729766015196,9,"sub-1006",1,0,"Younger",1
10,"Untrustworthy","3",1.53380001254845,3,"sub-1006",1,6,"Younger",1
11,"Neutral","2",1.93376587913372,12,"sub-1006",1,3,"Younger",1
12,"Untrustworthy","4",0.883836705936119,0,"sub-1006",1,9,"Younger",1
13,"Neutral","1",0.700546134146862,9,"sub-1006",1,0,"Younger",1
14,"Neutral","2",1.60069006320555,12,"sub-1006",1,3,"Younger",1
15,"Trustworthy","3",1.41733293130528,15,"sub-1006",1,6,"Younger",1
16,"Trustworthy","1",1.70058595639421,9,"sub-1006",1,0,"Younger",1
17,"Trustworthy","4",1.31693243293557,18,"sub-1006",1,9,"Younger",1
18,"Untrustworthy","1",1.11700013082009,9,"sub-1006",1,0,"Younger",1
19,"Untrustworthy","2",1.40053361852188,6,"sub-1006",1,3,"Younger",1
20,"Untrustworthy","1",0.767176202207338,9,"sub-1006",1,0,"Younger",1
21,"Untrustworthy","1",1.45031146710971,9,"sub-1006",1,0,"Younger",1
22,"Trustworthy","3",1.41728400677675,15,"sub-1006",1,6,"Younger",1
23,"Untrustworthy","1",2.11714690434746,9,"sub-1006",1,0,"Younger",1
24,"Trustworthy","2",0.883918057079427,12,"sub-1006",1,3,"Younger",1
25,"Neutral","3",0.800601885304786,15,"sub-1006",1,6,"Younger",1
26,"Neutral","4",1.1672109044739,18,"sub-1006",1,9,"Younger",1
27,"Untrustworthy","1",0.850458809523843,9,"sub-1006",1,0,"Younger",1
28,"Trustworthy","3",1.48390383488731,15,"sub-1006",1,6,"Younger",1
29,"Neutral","4",1.60031800932484,18,"sub-1006",1,9,"Younger",1
30,"Untrustworthy","1",0.8171127710375,9,"sub-1006",1,0,"Younger",1
31,"Neutral","3",2.50056206301088,15,"sub-1006",1,6,"Younger",1
32,"Untrustworthy","None",NA,9,"sub-1006",1,NA,"Younger",0
33,"Untrustworthy","2",3.21717876219191,6,"sub-1006",1,3,"Younger",1
34,"Neutral","4",1.0338591770269,18,"sub-1006",1,9,"Younger",1
35,"Trustworthy","3",1.16692418407183,15,"sub-1006",1,6,"Younger",1
36,"Trustworthy","2",2.000473316235,12,"sub-1006",1,3,"Younger",1
37,"Trustworthy","4",1.33359464333626,18,"sub-1006",1,9,"Younger",1
38,"Neutral","2",2.20035271160305,6,"sub-1006",1,3,"Younger",1
39,"Untrustworthy","1",0.967177340004127,9,"sub-1006",1,0,"Younger",1
40,"Untrustworthy","1",1.71709627320524,9,"sub-1006",1,0,"Younger",1
41,"Trustworthy","3",2.43382276810007,15,"sub-1006",1,6,"Younger",1
42,"Trustworthy","2",1.73379603028297,12,"sub-1006",1,3,"Younger",1
43,"Neutral","1",1.93337050074479,9,"sub-1006",1,0,"Younger",1
44,"Trustworthy","None",NA,9,"sub-1006",1,NA,"Younger",0
45,"Trustworthy","2",2.5171264243545,6,"sub-1006",1,3,"Younger",1
1,"Untrustworthy","2",3.63620527810417,6,"sub-1007",1,3,"Younger",1
2,"Untrustworthy","1",1.81723053113092,9,"sub-1007",1,0,"Younger",1
3,"Neutral","2",2.24418680067174,6,"sub-1007",1,3,"Younger",1
4,"Neutral","1",2.00056888966355,9,"sub-1007",1,0,"Younger",1
5,"Untrustworthy","1",2.83385007479228,9,"sub-1007",1,0,"Younger",1
6,"Neutral","1",1.60047672956716,9,"sub-1007",1,0,"Younger",1
7,"Neutral","1",2.80063146760222,9,"sub-1007",1,0,"Younger",1
8,"Trustworthy","2",1.91420233133249,12,"sub-1007",1,3,"Younger",1
9,"Trustworthy","3",1.45041329844389,15,"sub-1007",1,6,"Younger",1
10,"Trustworthy","3",1.40164181566797,15,"sub-1007",1,6,"Younger",1
11,"Trustworthy","4",0.950461653992534,18,"sub-1007",1,9,"Younger",1
12,"Untrustworthy","1",1.21712471765932,9,"sub-1007",1,0,"Younger",1
13,"Untrustworthy","2",2.61716624663677,6,"sub-1007",1,3,"Younger",1
14,"Trustworthy","3",1.76718644215725,15,"sub-1007",1,6,"Younger",1
15,"Untrustworthy","1",0.967123864335008,9,"sub-1007",1,0,"Younger",1
16,"Trustworthy","4",1.9672575534787,18,"sub-1007",1,9,"Younger",1
17,"Trustworthy","4",1.25030293373857,18,"sub-1007",1,9,"Younger",1
18,"Untrustworthy","1",1.16715913556982,9,"sub-1007",1,0,"Younger",1
19,"Neutral","1",2.58419112418778,9,"sub-1007",1,0,"Younger",1
20,"Untrustworthy","1",1.48414845741354,9,"sub-1007",1,0,"Younger",1
21,"Trustworthy","4",1.21721118898131,18,"sub-1007",1,9,"Younger",1
22,"Neutral","2",2.45058510312811,12,"sub-1007",1,3,"Younger",1
23,"Untrustworthy","1",1.1004994851537,9,"sub-1007",1,0,"Younger",1
24,"Neutral","2",1.55042581399903,12,"sub-1007",1,3,"Younger",1
25,"Untrustworthy","1",0.983857185929082,9,"sub-1007",1,0,"Younger",1
26,"Trustworthy","4",1.70067982317414,18,"sub-1007",1,9,"Younger",1
27,"Neutral","3",0.917167384410277,15,"sub-1007",1,6,"Younger",1
28,"Trustworthy","4",1.20053703198209,18,"sub-1007",1,9,"Younger",1
29,"Neutral","3",1.56727348233107,15,"sub-1007",1,6,"Younger",1
30,"Untrustworthy","1",1.91724702890497,9,"sub-1007",1,0,"Younger",1
31,"Neutral","4",1.56709371320903,18,"sub-1007",1,9,"Younger",1
32,"Neutral","4",1.23367144342046,0,"sub-1007",1,9,"Younger",1
33,"Neutral","2",1.05042979610153,12,"sub-1007",1,3,"Younger",1
34,"Trustworthy","3",1.50043008069042,15,"sub-1007",1,6,"Younger",1
35,"Untrustworthy","1",2.0006024541799,9,"sub-1007",1,0,"Younger",1
36,"Trustworthy","3",3.55075975216459,15,"sub-1007",1,6,"Younger",1
37,"Trustworthy","3",1.25053105852567,15,"sub-1007",1,6,"Younger",1
38,"Neutral","2",1.38412740861531,6,"sub-1007",1,3,"Younger",1
39,"Neutral","1",1.23438084882218,9,"sub-1007",1,0,"Younger",1
40,"Untrustworthy","1",1.66725698451046,9,"sub-1007",1,0,"Younger",1
41,"Trustworthy","3",1.2671944067115,15,"sub-1007",1,6,"Younger",1
42,"Untrustworthy","2",2.55067043658346,6,"sub-1007",1,3,"Younger",1
43,"Trustworthy","4",1.25031317386311,18,"sub-1007",1,9,"Younger",1
44,"Untrustworthy","1",0.484535871306434,9,"sub-1007",1,0,"Younger",1
45,"Neutral","2",1.43391208373941,6,"sub-1007",1,3,"Younger",1
1,"Neutral","None",NA,9,"sub-1008",1,NA,"Younger",0
2,"Trustworthy","2",1.31438266939949,12,"sub-1008",1,3,"Younger",1
3,"Neutral","3",2.13220882799942,3,"sub-1008",1,6,"Younger",1
4,"Untrustworthy","1",1.44656931061763,9,"sub-1008",1,0,"Younger",1
5,"Untrustworthy","2",1.40065649873577,6,"sub-1008",1,3,"Younger",1
6,"Trustworthy","4",0.83201142330654,18,"sub-1008",1,9,"Younger",1
7,"Neutral","4",1.83389558596537,18,"sub-1008",1,9,"Younger",1
8,"Trustworthy","3",2.01694665523246,15,"sub-1008",1,6,"Younger",1
9,"Neutral","1",1.50097564584576,9,"sub-1008",1,0,"Younger",1
10,"Trustworthy","1",1.51719924225472,9,"sub-1008",1,0,"Younger",1
11,"Neutral","1",1.23388705262914,9,"sub-1008",1,0,"Younger",1
12,"Trustworthy","4",1.09657699067611,18,"sub-1008",1,9,"Younger",1
13,"Neutral","1",0.883968119393103,9,"sub-1008",1,0,"Younger",1
14,"Untrustworthy","1",1.93374824349303,9,"sub-1008",1,0,"Younger",1
15,"Untrustworthy","1",1.05044800066389,9,"sub-1008",1,0,"Younger",1
16,"Untrustworthy","1",0.833848937065341,9,"sub-1008",1,0,"Younger",1
17,"Neutral","1",0.917303349007852,9,"sub-1008",1,0,"Younger",1
18,"Trustworthy","4",1.06713808653876,18,"sub-1008",1,9,"Younger",1
19,"Untrustworthy","1",0.733748812461272,9,"sub-1008",1,0,"Younger",1
20,"Trustworthy","1",3.3337636035867,9,"sub-1008",1,0,"Younger",1
21,"Neutral","1",0.850245475885458,9,"sub-1008",1,0,"Younger",1
22,"Untrustworthy","1",0.91692503739614,9,"sub-1008",1,0,"Younger",1
23,"Trustworthy","4",1.23188399209175,18,"sub-1008",1,9,"Younger",1
24,"Untrustworthy","1",0.93291538907215,9,"sub-1008",1,0,"Younger",1
25,"Neutral","2",1.81709001539275,12,"sub-1008",1,3,"Younger",1
26,"Neutral","4",2.60030378715601,18,"sub-1008",1,9,"Younger",1
27,"Trustworthy","4",1.16701691318303,18,"sub-1008",1,9,"Younger",1
28,"Untrustworthy","1",0.833487123134546,9,"sub-1008",1,0,"Younger",1
29,"Neutral","1",1.60033905832097,9,"sub-1008",1,0,"Younger",1
30,"Untrustworthy","1",1.70065080979839,9,"sub-1008",1,0,"Younger",1
31,"Neutral","4",1.75066019641235,18,"sub-1008",1,9,"Younger",1
32,"Untrustworthy","1",0.899636479560286,9,"sub-1008",1,0,"Younger",1
33,"Untrustworthy","1",0.850457102875225,9,"sub-1008",1,0,"Younger",1
34,"Untrustworthy","1",1.13369192345999,9,"sub-1008",1,0,"Younger",1
35,"Trustworthy","4",0.866990744136274,18,"sub-1008",1,9,"Younger",1
36,"Trustworthy","4",2.26736678020097,18,"sub-1008",1,9,"Younger",1
37,"Trustworthy","1",1.83363901672419,9,"sub-1008",1,0,"Younger",1
38,"Neutral","1",0.933327265200205,9,"sub-1008",1,0,"Younger",1
39,"Untrustworthy","1",0.667246744618751,9,"sub-1008",1,0,"Younger",1
40,"Untrustworthy","1",0.867550531635061,9,"sub-1008",1,0,"Younger",1
41,"Trustworthy","4",1.06705559766851,18,"sub-1008",1,9,"Younger",1
42,"Neutral","1",0.783571034437045,9,"sub-1008",1,0,"Younger",1
43,"Neutral","1",1.05047189397737,9,"sub-1008",1,0,"Younger",1
44,"Trustworthy","4",1.066980504198,18,"sub-1008",1,9,"Younger",1
45,"Trustworthy","4",1.8506294763647,0,"sub-1008",1,9,"Younger",1
1,"Neutral","2",2.17859495629091,12,"sub-1009",1,3,"Younger",1
2,"Untrustworthy","3",1.34827939304523,3,"sub-1009",1,6,"Younger",1
3,"Untrustworthy","2",2.15016298694536,6,"sub-1009",1,3,"Younger",1
4,"Untrustworthy","4",3.46713524218649,0,"sub-1009",1,9,"Younger",1
5,"Untrustworthy","1",1.4499695643317,9,"sub-1009",1,0,"Younger",1
6,"Neutral","3",1.86729054898024,15,"sub-1009",1,6,"Younger",1
7,"Neutral","4",2.2007173699094,18,"sub-1009",1,9,"Younger",1
8,"Untrustworthy","2",1.59933383017778,6,"sub-1009",1,3,"Younger",1
9,"Trustworthy","3",2.47520494251512,15,"sub-1009",1,6,"Younger",1
10,"Neutral","3",2.00024860480335,15,"sub-1009",1,6,"Younger",1
11,"Neutral","4",1.41704279754777,18,"sub-1009",1,9,"Younger",1
12,"Trustworthy","3",2.01701378414873,15,"sub-1009",1,6,"Younger",1
13,"Neutral","4",1.50055978749879,0,"sub-1009",1,9,"Younger",1
14,"Neutral","None",NA,9,"sub-1009",1,NA,"Younger",0
15,"Trustworthy","3",1.21696144633461,15,"sub-1009",1,6,"Younger",1
16,"Neutral","2",1.1004670583643,12,"sub-1009",1,3,"Younger",1
17,"Trustworthy","1",1.21718900231645,9,"sub-1009",1,0,"Younger",1
18,"Untrustworthy","2",1.70058595645241,6,"sub-1009",1,3,"Younger",1
19,"Trustworthy","3",1.25059249857441,15,"sub-1009",1,6,"Younger",1
20,"Neutral","3",1.36712500208523,3,"sub-1009",1,6,"Younger",1
21,"Trustworthy","2",1.2837678702781,12,"sub-1009",1,3,"Younger",1
22,"Trustworthy","2",0.767144913203083,12,"sub-1009",1,3,"Younger",1
23,"Trustworthy","2",2.05075633886736,12,"sub-1009",1,3,"Younger",1
24,"Untrustworthy","3",1.58546259265859,3,"sub-1009",1,6,"Younger",1
25,"Untrustworthy","2",1.50027648033574,6,"sub-1009",1,3,"Younger",1
26,"Untrustworthy","1",0.633648687740788,9,"sub-1009",1,0,"Younger",1
27,"Neutral","4",1.16701520653442,18,"sub-1009",1,9,"Younger",1
28,"Untrustworthy","2",2.34968284401111,6,"sub-1009",1,3,"Younger",1
29,"Trustworthy","3",1.16717904666439,15,"sub-1009",1,6,"Younger",1
30,"Neutral","4",1.71689659287222,0,"sub-1009",1,9,"Younger",1
31,"Trustworthy","3",0.867011793074198,15,"sub-1009",1,6,"Younger",1
32,"Trustworthy","3",0.767059011035599,3,"sub-1009",1,6,"Younger",1
33,"Trustworthy","3",1.26720009557903,15,"sub-1009",1,6,"Younger",1
34,"Untrustworthy","1",0.865677177789621,9,"sub-1009",1,0,"Younger",1
35,"Untrustworthy","4",1.66707266436424,0,"sub-1009",1,9,"Younger",1
36,"Trustworthy","2",1.95060216984712,12,"sub-1009",1,3,"Younger",1
37,"Untrustworthy","1",1.15033934265375,9,"sub-1009",1,0,"Younger",1
38,"Neutral","4",1.30046421394218,0,"sub-1009",1,9,"Younger",1
39,"Untrustworthy","1",0.883116491604596,9,"sub-1009",1,0,"Younger",1
40,"Trustworthy","3",1.71727262891363,15,"sub-1009",1,6,"Younger",1
41,"Untrustworthy","1",0.783691639080644,9,"sub-1009",1,0,"Younger",1
42,"Neutral","4",1.3672592601506,18,"sub-1009",1,9,"Younger",1
43,"Neutral","3",0.783869701437652,15,"sub-1009",1,6,"Younger",1
44,"Neutral","2",0.783943657181226,6,"sub-1009",1,3,"Younger",1
45,"Trustworthy","3",0.950671005412005,3,"sub-1009",1,6,"Younger",1
1,"Trustworthy","2",3.17703676735982,12,"sub-1010",1,3,"Younger",1
2,"Untrustworthy","3",2.99717716942541,3,"sub-1010",1,6,"Younger",1
3,"Neutral","1",2.99575835838914,9,"sub-1010",1,0,"Younger",1
4,"Neutral","2",3.88578799762763,6,"sub-1010",1,3,"Younger",1
5,"Trustworthy","4",3.2172931090463,18,"sub-1010",1,9,"Younger",1
6,"Neutral","1",3.2667614815291,9,"sub-1010",1,0,"Younger",1
7,"Trustworthy","2",2.33360488316976,12,"sub-1010",1,3,"Younger",1
8,"Trustworthy","4",1.8839339860715,18,"sub-1010",1,9,"Younger",1
9,"Untrustworthy","1",3.53375165676698,9,"sub-1010",1,0,"Younger",1
10,"Untrustworthy","2",1.30039594718255,6,"sub-1010",1,3,"Younger",1
11,"Neutral","1",1.56695661065169,9,"sub-1010",1,0,"Younger",1
12,"Untrustworthy","1",1.58418600424193,9,"sub-1010",1,0,"Younger",1
13,"Untrustworthy","1",1.83390468824655,9,"sub-1010",1,0,"Younger",1
14,"Trustworthy","3",2.48404435068369,15,"sub-1010",1,6,"Younger",1
15,"Neutral","1",1.96721488656476,9,"sub-1010",1,0,"Younger",1
16,"Neutral","3",3.21706384653226,15,"sub-1010",1,6,"Younger",1
17,"Trustworthy","3",1.53361853677779,15,"sub-1010",1,6,"Younger",1
18,"Trustworthy","4",2.55072732549161,18,"sub-1010",1,9,"Younger",1
19,"Trustworthy","4",2.71750132273883,18,"sub-1010",1,9,"Younger",1
20,"Untrustworthy","1",2.51696315314621,9,"sub-1010",1,0,"Younger",1
21,"Neutral","1",3.11723678885028,9,"sub-1010",1,0,"Younger",1
22,"Untrustworthy","4",1.16717165103182,0,"sub-1010",1,9,"Younger",1
23,"Neutral","2",2.43036960763857,12,"sub-1010",1,3,"Younger",1
24,"Neutral","3",1.56764439842664,15,"sub-1010",1,6,"Younger",1
25,"Untrustworthy","2",2.46713524218649,6,"sub-1010",1,3,"Younger",1
26,"Trustworthy","4",3.3341140395496,18,"sub-1010",1,9,"Younger",1
27,"Trustworthy","3",1.81731302035041,15,"sub-1010",1,6,"Younger",1
28,"Neutral","3",2.41706782858819,15,"sub-1010",1,6,"Younger",1
29,"Untrustworthy","1",0.650883770082146,9,"sub-1010",1,0,"Younger",1
30,"Neutral","4",1.36670402390882,0,"sub-1010",1,9,"Younger",1
31,"Untrustworthy","3",3.15088832122274,3,"sub-1010",1,6,"Younger",1
32,"Untrustworthy","1",0.733794323634356,9,"sub-1010",1,0,"Younger",1
33,"Neutral","1",2.03385803941637,9,"sub-1010",1,0,"Younger",1
34,"Neutral","2",2.36734231794253,12,"sub-1010",1,3,"Younger",1
35,"Untrustworthy","1",1.25046677398495,9,"sub-1010",1,0,"Younger",1
36,"Untrustworthy","1",0.633761327946559,9,"sub-1010",1,0,"Younger",1
37,"Trustworthy","4",0.966994726564735,18,"sub-1010",1,9,"Younger",1
38,"Untrustworthy","1",1.11708773975261,9,"sub-1010",1,0,"Younger",1
39,"Trustworthy","3",1.05155392200686,15,"sub-1010",1,6,"Younger",1
40,"Trustworthy","4",1.55052480078302,18,"sub-1010",1,9,"Younger",1
41,"Neutral","3",3.00030378717929,3,"sub-1010",1,6,"Younger",1
42,"Untrustworthy","1",0.950124302413315,9,"sub-1010",1,0,"Younger",1
43,"Trustworthy","4",1.55035640951246,18,"sub-1010",1,9,"Younger",1
44,"Trustworthy","4",1.68394195032306,18,"sub-1010",1,9,"Younger",1
45,"Neutral","3",2.81535831512883,3,"sub-1010",1,6,"Younger",1
1,"Neutral","1",2.56459913193248,9,"sub-1012",1,0,"Younger",1
2,"Trustworthy","2",1.31450896291062,12,"sub-1012",1,3,"Younger",1
3,"Untrustworthy","3",1.43809968070127,3,"sub-1012",1,6,"Younger",1
4,"Trustworthy","None",NA,9,"sub-1012",1,NA,"Younger",0
5,"Untrustworthy","2",1.71732781128958,6,"sub-1012",1,3,"Younger",1
6,"Untrustworthy","1",1.76718530454673,9,"sub-1012",1,0,"Younger",1
7,"Untrustworthy","1",1.31724304659292,9,"sub-1012",1,0,"Younger",1
8,"Neutral","4",2.06803181231953,18,"sub-1012",1,9,"Younger",1
9,"Trustworthy","3",1.71738811349496,15,"sub-1012",1,6,"Younger",1
10,"Trustworthy","4",1.65044629387558,18,"sub-1012",1,9,"Younger",1
11,"Untrustworthy","1",1.58372349687852,9,"sub-1012",1,0,"Younger",1
12,"Trustworthy","4",1.16710509103723,18,"sub-1012",1,9,"Younger",1
13,"Neutral","4",1.21711732214317,0,"sub-1012",1,9,"Younger",1
14,"Untrustworthy","2",3.78405231516808,6,"sub-1012",1,3,"Younger",1
15,"Neutral","3",1.850681245327,15,"sub-1012",1,6,"Younger",1
16,"Untrustworthy","1",1.38386913272552,9,"sub-1012",1,0,"Younger",1
17,"Trustworthy","4",2.18391066160984,18,"sub-1012",1,9,"Younger",1
18,"Neutral","3",1.65044003608637,3,"sub-1012",1,6,"Younger",1
19,"Trustworthy","4",2.21719696675427,18,"sub-1012",1,9,"Younger",1
20,"Neutral","2",1.95048327185214,6,"sub-1012",1,3,"Younger",1
21,"Neutral","2",3.51806509238668,6,"sub-1012",1,3,"Younger",1
22,"Untrustworthy","2",2.20043520047329,6,"sub-1012",1,3,"Younger",1
23,"Untrustworthy","1",1.93182255188003,9,"sub-1012",1,0,"Younger",1
24,"Untrustworthy","2",1.70047445409,6,"sub-1012",1,3,"Younger",1
25,"Untrustworthy","1",0.783997132675722,9,"sub-1012",1,0,"Younger",1
26,"Trustworthy","4",2.0500753778033,18,"sub-1012",1,9,"Younger",1
27,"Untrustworthy","1",1.60126122855581,9,"sub-1012",1,0,"Younger",1
28,"Trustworthy","4",1.41698306403123,18,"sub-1012",1,9,"Younger",1
29,"Neutral","2",2.63399172830395,12,"sub-1012",1,3,"Younger",1
30,"Trustworthy","4",1.38391293724999,18,"sub-1012",1,9,"Younger",1
31,"Trustworthy","4",1.00062350323424,18,"sub-1012",1,9,"Younger",1
32,"Neutral","1",2.66702373977751,9,"sub-1012",1,0,"Younger",1
33,"Neutral","2",1.50050403643399,12,"sub-1012",1,3,"Younger",1
34,"Trustworthy","4",1.00045283604413,18,"sub-1012",1,9,"Younger",1
35,"Trustworthy","4",1.01733406912535,18,"sub-1012",1,9,"Younger",1
36,"Trustworthy","4",0.83377555035986,18,"sub-1012",1,9,"Younger",1
37,"Neutral","3",2.60055978759192,15,"sub-1012",1,6,"Younger",1
38,"Untrustworthy","1",1.25004750210792,9,"sub-1012",1,0,"Younger",1
39,"Trustworthy","4",1.10083342343569,18,"sub-1012",1,9,"Younger",1
40,"Untrustworthy","1",2.55217514978722,9,"sub-1012",1,0,"Younger",1
41,"Neutral","3",1.88381850160658,3,"sub-1012",1,6,"Younger",1
42,"Untrustworthy","1",1.06713012210093,9,"sub-1012",1,0,"Younger",1
43,"Neutral","2",1.31711163325235,12,"sub-1012",1,3,"Younger",1
44,"Neutral","2",1.36711703753099,6,"sub-1012",1,3,"Younger",1
45,"Neutral","1",1.81696770410053,9,"sub-1012",1,0,"Younger",1
1,"Neutral","1",1.82136294594966,9,"sub-1013",1,0,"Younger",1
2,"Untrustworthy","2",1.18099453300238,6,"sub-1013",1,3,"Younger",1
3,"Trustworthy","2",1.39245993597433,12,"sub-1013",1,3,"Younger",1
4,"Neutral","2",1.71742167812772,6,"sub-1013",1,3,"Younger",1
5,"Neutral","1",2.8337636035867,9,"sub-1013",1,0,"Younger",1
6,"Untrustworthy","2",1.40025372500531,6,"sub-1013",1,3,"Younger",1
7,"Untrustworthy","2",3.30070542311296,6,"sub-1013",1,3,"Younger",1
8,"Neutral","1",1.30218169209547,9,"sub-1013",1,0,"Younger",1
9,"Trustworthy","2",1.71722313552164,12,"sub-1013",1,3,"Younger",1
10,"Untrustworthy","1",1.93302347813733,9,"sub-1013",1,0,"Younger",1
11,"Trustworthy","1",2.41747174039483,9,"sub-1013",1,0,"Younger",1
12,"Untrustworthy","1",1.06679333932698,9,"sub-1013",1,0,"Younger",1
13,"Neutral","2",1.65080810780637,6,"sub-1013",1,3,"Younger",1
14,"Untrustworthy","1",1.0005034673959,9,"sub-1013",1,0,"Younger",1
15,"Neutral","1",1.23390980809927,9,"sub-1013",1,0,"Younger",1
16,"Neutral","1",0.95042695174925,9,"sub-1013",1,0,"Younger",1
17,"Trustworthy","3",2.25050033838488,15,"sub-1013",1,6,"Younger",1
18,"Untrustworthy","1",0.783734305761755,9,"sub-1013",1,0,"Younger",1
19,"Neutral","1",1.1838896125555,9,"sub-1013",1,0,"Younger",1
20,"Untrustworthy","1",1.20025315578096,9,"sub-1013",1,0,"Younger",1
21,"Neutral","1",1.05054584960453,9,"sub-1013",1,0,"Younger",1
22,"Trustworthy","3",1.43383073247969,15,"sub-1013",1,6,"Younger",1
23,"Untrustworthy","2",1.53377270582132,6,"sub-1013",1,3,"Younger",1
24,"Trustworthy","2",1.5173397581093,12,"sub-1013",1,3,"Younger",1
25,"Untrustworthy","1",1.51722541125491,9,"sub-1013",1,0,"Younger",1
26,"Neutral","2",2.11743248719722,12,"sub-1013",1,3,"Younger",1
27,"Trustworthy","3",2.03392915031873,15,"sub-1013",1,6,"Younger",1
28,"Untrustworthy","1",0.783916350454092,9,"sub-1013",1,0,"Younger",1
29,"Trustworthy","3",2.18395332829095,15,"sub-1013",1,6,"Younger",1
30,"Untrustworthy","1",0.983681398909539,9,"sub-1013",1,0,"Younger",1
31,"Untrustworthy","1",0.833846661495045,9,"sub-1013",1,0,"Younger",1
32,"Trustworthy","4",1.21715543768369,0,"sub-1013",1,9,"Younger",1
33,"Neutral","3",1.81718900217675,15,"sub-1013",1,6,"Younger",1
34,"Neutral","4",0.900597334373742,18,"sub-1013",1,9,"Younger",1
35,"Untrustworthy","1",0.833940528100356,9,"sub-1013",1,0,"Younger",1
36,"Trustworthy","3",0.617192984558642,15,"sub-1013",1,6,"Younger",1
37,"Neutral","4",0.900368640432134,18,"sub-1013",1,9,"Younger",1
38,"Trustworthy","3",1.23243922833353,3,"sub-1013",1,6,"Younger",1
39,"Trustworthy","2",1.2670390997082,12,"sub-1013",1,3,"Younger",1
40,"Trustworthy","2",1.00051484513097,12,"sub-1013",1,3,"Younger",1
41,"Untrustworthy","2",1.30057742306963,6,"sub-1013",1,3,"Younger",1
42,"Trustworthy","2",1.38360459893011,12,"sub-1013",1,3,"Younger",1
43,"Neutral","4",2.1029889464844,18,"sub-1013",1,9,"Younger",1
44,"Neutral","4",1.13387396815233,0,"sub-1013",1,9,"Younger",1
45,"Trustworthy","3",1.61687213066034,3,"sub-1013",1,6,"Younger",1
1,"Untrustworthy","1",2.46136556286365,9,"sub-1014",1,0,"Younger",1
2,"Untrustworthy","1",2.80054272105917,9,"sub-1014",1,0,"Younger",1
3,"Untrustworthy","2",2.68411546200514,6,"sub-1014",1,3,"Younger",1
4,"Trustworthy","2",2.29733702726662,12,"sub-1014",1,3,"Younger",1
5,"Untrustworthy","1",2.31729083321989,9,"sub-1014",1,0,"Younger",1
6,"Trustworthy","2",1.81721858447418,12,"sub-1014",1,3,"Younger",1
7,"Neutral","2",2.10989811178297,12,"sub-1014",1,3,"Younger",1
8,"Untrustworthy","1",1.56732468260452,9,"sub-1014",1,0,"Younger",1
9,"Untrustworthy","1",2.63416808424518,9,"sub-1014",1,0,"Younger",1
10,"Trustworthy","2",1.4173437403515,12,"sub-1014",1,3,"Younger",1
11,"Neutral","2",1.86717449547723,12,"sub-1014",1,3,"Younger",1
12,"Neutral","2",2.01707294862717,12,"sub-1014",1,3,"Younger",1
13,"Trustworthy","2",1.63385974569246,12,"sub-1014",1,3,"Younger",1
14,"Untrustworthy","1",1.5339428037405,9,"sub-1014",1,0,"Younger",1
15,"Trustworthy","2",1.71741598891094,12,"sub-1014",1,3,"Younger",1
16,"Neutral","2",1.58409555070102,12,"sub-1014",1,3,"Younger",1
17,"Untrustworthy","1",1.4169460865669,9,"sub-1014",1,0,"Younger",1
18,"Untrustworthy","1",1.16740603372455,9,"sub-1014",1,0,"Younger",1
19,"Trustworthy","2",1.00046193879098,12,"sub-1014",1,3,"Younger",1
20,"Trustworthy","2",1.90068778768182,12,"sub-1014",1,3,"Younger",1
21,"Trustworthy","3",1.43380001233891,15,"sub-1014",1,6,"Younger",1
22,"Untrustworthy","3",2.71712813107297,3,"sub-1014",1,6,"Younger",1
23,"Neutral","2",2.3647720743902,12,"sub-1014",1,3,"Younger",1
24,"Neutral","3",1.80050403624773,15,"sub-1014",1,6,"Younger",1
25,"Neutral","4",0.967146050650626,18,"sub-1014",1,9,"Younger",1
26,"Neutral","4",1.0671005398035,18,"sub-1014",1,9,"Younger",1
27,"Untrustworthy","2",3.01720720669255,6,"sub-1014",1,3,"Younger",1
28,"Neutral","4",1.55058055184782,18,"sub-1014",1,9,"Younger",1
29,"Trustworthy","2",3.0011235573329,12,"sub-1014",1,3,"Younger",1
30,"Neutral","3",1.71726409578696,3,"sub-1014",1,6,"Younger",1
31,"Trustworthy","3",2.66692190850154,15,"sub-1014",1,6,"Younger",1
32,"Neutral","2",1.84991950215772,6,"sub-1014",1,3,"Younger",1
33,"Neutral","3",2.16700325952843,15,"sub-1014",1,6,"Younger",1
34,"Trustworthy","4",1.18354884767905,18,"sub-1014",1,9,"Younger",1
35,"Neutral","3",3.83369249245152,3,"sub-1014",1,6,"Younger",1
36,"Untrustworthy","2",2.16723650461063,6,"sub-1014",1,3,"Younger",1
37,"Untrustworthy","1",1.2673423178494,9,"sub-1014",1,0,"Younger",1
38,"Neutral","2",3.11774935852736,6,"sub-1014",1,3,"Younger",1
39,"Trustworthy","4",2.16722910897806,18,"sub-1014",1,9,"Younger",1
40,"Trustworthy","4",1.93396499054506,18,"sub-1014",1,9,"Younger",1
41,"Untrustworthy","1",1.33155801799148,9,"sub-1014",1,0,"Younger",1
42,"Untrustworthy","4",2.18409099942073,0,"sub-1014",1,9,"Younger",1
43,"Neutral","2",1.86709257541224,12,"sub-1014",1,3,"Younger",1
44,"Trustworthy","4",2.25048213405535,18,"sub-1014",1,9,"Younger",1
45,"Trustworthy","4",0.834014484193176,0,"sub-1014",1,9,"Younger",1
1,"Trustworthy","None",NA,9,"sub-1015",1,NA,"Younger",0
2,"Untrustworthy","2",1.69602858088911,6,"sub-1015",1,3,"Younger",1
3,"Trustworthy","3",1.90065763657913,15,"sub-1015",1,6,"Younger",1
4,"Neutral","4",0.978169426321983,0,"sub-1015",1,9,"Younger",1
5,"Neutral","1",2.56726608704776,9,"sub-1015",1,0,"Younger",1
6,"Untrustworthy","1",1.41706839762628,9,"sub-1015",1,0,"Younger",1
7,"Untrustworthy","1",1.38412740873173,9,"sub-1015",1,0,"Younger",1
8,"Neutral","1",2.11717534856871,9,"sub-1015",1,0,"Younger",1
9,"Untrustworthy","1",1.73393483925611,9,"sub-1015",1,0,"Younger",1
10,"Neutral","1",1.767685926985,9,"sub-1015",1,0,"Younger",1
11,"Untrustworthy","3",2.35116366343573,3,"sub-1015",1,6,"Younger",1
12,"Trustworthy","4",1.43393142614514,18,"sub-1015",1,9,"Younger",1
13,"Neutral","1",1.0167225128971,9,"sub-1015",1,0,"Younger",1
14,"Untrustworthy","None",NA,9,"sub-1015",1,NA,"Younger",0
15,"Neutral","1",1.63465619180351,9,"sub-1015",1,0,"Younger",1
16,"Trustworthy","4",1.53361455444247,18,"sub-1015",1,9,"Younger",1
17,"Trustworthy","4",1.06741741113365,18,"sub-1015",1,9,"Younger",1
18,"Trustworthy","4",1.21707863779739,18,"sub-1015",1,9,"Younger",1
19,"Neutral","1",2.05075690755621,9,"sub-1015",1,0,"Younger",1
20,"Untrustworthy","2",1.54979093326256,6,"sub-1015",1,3,"Younger",1
21,"Trustworthy","4",1.01736763352528,18,"sub-1015",1,9,"Younger",1
22,"Neutral","1",0.66624151635915,9,"sub-1015",1,0,"Younger",1
23,"Untrustworthy","2",0.983733736909926,6,"sub-1015",1,3,"Younger",1
24,"Untrustworthy","1",1.617409162689,9,"sub-1015",1,0,"Younger",1
25,"Neutral","2",0.71747458493337,12,"sub-1015",1,3,"Younger",1
26,"Neutral","4",1.50091306818649,18,"sub-1015",1,9,"Younger",1
27,"Untrustworthy","2",0.850682382937521,6,"sub-1015",1,3,"Younger",1
28,"Neutral","4",1.18401078600436,18,"sub-1015",1,9,"Younger",1
29,"Trustworthy","2",1.70051086274907,12,"sub-1015",1,3,"Younger",1
30,"Trustworthy","4",0.683675710111856,18,"sub-1015",1,9,"Younger",1
31,"Trustworthy","4",0.817047917749733,18,"sub-1015",1,9,"Younger",1
32,"Neutral","4",2.16720066405833,0,"sub-1015",1,9,"Younger",1
33,"Trustworthy","4",0.867561909370124,18,"sub-1015",1,9,"Younger",1
34,"Neutral","1",0.834019035100937,9,"sub-1015",1,0,"Younger",1
35,"Neutral","1",1.06722171371803,9,"sub-1015",1,0,"Younger",1
36,"Untrustworthy","1",1.51738299382851,9,"sub-1015",1,0,"Younger",1
37,"Untrustworthy","1",1.51717819366604,9,"sub-1015",1,0,"Younger",1
38,"Trustworthy","4",2.05097194807604,0,"sub-1015",1,9,"Younger",1
39,"Trustworthy","2",1.76751127792522,12,"sub-1015",1,3,"Younger",1
40,"Untrustworthy","3",1.96730761555955,3,"sub-1015",1,6,"Younger",1
41,"Untrustworthy","1",1.76827302156016,9,"sub-1015",1,0,"Younger",1
42,"Trustworthy","3",2.0173147264868,15,"sub-1015",1,6,"Younger",1
43,"Trustworthy","4",1.4177738209255,18,"sub-1015",1,9,"Younger",1
44,"Neutral","2",2.35058339638636,6,"sub-1015",1,3,"Younger",1
45,"Untrustworthy","1",1.75062378775328,9,"sub-1015",1,0,"Younger",1
1,"Neutral","1",1.88591170624386,9,"sub-1016",1,0,"Younger",1
2,"Neutral","1",1.65044026273608,9,"sub-1016",1,0,"Younger",1
3,"Untrustworthy","1",2.64458981439384,9,"sub-1016",1,0,"Younger",1
4,"Trustworthy","1",2.06493121570202,9,"sub-1016",1,0,"Younger",1
5,"Trustworthy","1",2.95023364246663,9,"sub-1016",1,0,"Younger",1
6,"Untrustworthy","2",2.10111934482302,6,"sub-1016",1,3,"Younger",1
7,"Neutral","1",0.898370931168756,9,"sub-1016",1,0,"Younger",1
8,"Trustworthy","2",2.68399273188152,12,"sub-1016",1,3,"Younger",1
9,"Trustworthy","2",2.58521493172884,12,"sub-1016",1,3,"Younger",1
10,"Neutral","2",3.75005660439638,12,"sub-1016",1,3,"Younger",1
11,"Untrustworthy","1",0.850492145356839,9,"sub-1016",1,0,"Younger",1
12,"Trustworthy","1",0.817132529380615,9,"sub-1016",1,0,"Younger",1
13,"Neutral","1",0.917336532760601,9,"sub-1016",1,0,"Younger",1
14,"Untrustworthy","1",1.03377831784201,9,"sub-1016",1,0,"Younger",1
15,"Untrustworthy","1",0.883865983545547,9,"sub-1016",1,0,"Younger",1
16,"Untrustworthy","1",1.08390421284639,9,"sub-1016",1,0,"Younger",1
17,"Neutral","1",2.78481682362326,9,"sub-1016",1,0,"Younger",1
18,"Untrustworthy","1",1.16703701301776,9,"sub-1016",1,0,"Younger",1
19,"Untrustworthy","1",1.05046779693475,9,"sub-1016",1,0,"Younger",1
20,"Neutral","1",0.91752483482378,9,"sub-1016",1,0,"Younger",1
21,"Untrustworthy","1",0.833850452891056,9,"sub-1016",1,0,"Younger",1
22,"Trustworthy","1",0.600345087706955,9,"sub-1016",1,0,"Younger",1
23,"Neutral","1",1.08089934429881,9,"sub-1016",1,0,"Younger",1
24,"Trustworthy","2",2.65053924931817,12,"sub-1016",1,3,"Younger",1
25,"Untrustworthy","1",1.35046938982123,9,"sub-1016",1,0,"Younger",1
26,"Untrustworthy","1",0.800547725755678,9,"sub-1016",1,0,"Younger",1
27,"Neutral","1",1.11722116219426,9,"sub-1016",1,0,"Younger",1
28,"Trustworthy","1",1.23391553372494,9,"sub-1016",1,0,"Younger",1
29,"Untrustworthy","1",1.56770682222304,9,"sub-1016",1,0,"Younger",1
30,"Neutral","1",0.851380180154592,9,"sub-1016",1,0,"Younger",1
31,"Trustworthy","1",0.850178118958866,9,"sub-1016",1,0,"Younger",1
32,"Untrustworthy","1",2.91697585751535,9,"sub-1016",1,0,"Younger",1
33,"Trustworthy","1",0.850373816570936,9,"sub-1016",1,0,"Younger",1
34,"Neutral","2",1.90039844943931,12,"sub-1016",1,3,"Younger",1
35,"Neutral","1",1.83355406203555,9,"sub-1016",1,0,"Younger",1
36,"Neutral","1",1.00106211464845,9,"sub-1016",1,0,"Younger",1
37,"Trustworthy","1",1.28354023804604,9,"sub-1016",1,0,"Younger",1
38,"Trustworthy","1",2.35031294551118,9,"sub-1016",1,0,"Younger",1
39,"Untrustworthy","2",1.96790843627423,6,"sub-1016",1,3,"Younger",1
40,"Trustworthy","3",0.550325005944615,15,"sub-1016",1,6,"Younger",1
41,"Neutral","4",2.58367153748986,0,"sub-1016",1,9,"Younger",1
42,"Trustworthy","3",3.05099003648866,15,"sub-1016",1,6,"Younger",1
43,"Untrustworthy","1",1.73376193385593,9,"sub-1016",1,0,"Younger",1
44,"Neutral","1",2.88372148589042,9,"sub-1016",1,0,"Younger",1
45,"Trustworthy","3",1.28349643363799,3,"sub-1016",1,6,"Younger",1
1,"Trustworthy","2",3.8558544874395,12,"sub-1017",1,3,"Younger",1
2,"Trustworthy","None",NA,9,"sub-1017",1,NA,"Younger",0
3,"Neutral","2",2.12668860300619,6,"sub-1017",1,3,"Younger",1
4,"Neutral","1",3.08383992845484,9,"sub-1017",1,0,"Younger",1
5,"Trustworthy","2",2.60042757652991,12,"sub-1017",1,3,"Younger",1
6,"Trustworthy","3",2.33386751954095,15,"sub-1017",1,6,"Younger",1
7,"Untrustworthy","2",2.41348743383423,6,"sub-1017",1,3,"Younger",1
8,"Neutral","1",3.83559409585723,9,"sub-1017",1,0,"Younger",1
9,"Untrustworthy","2",3.55071014339046,6,"sub-1017",1,3,"Younger",1
10,"Trustworthy","None",NA,9,"sub-1017",1,NA,"Younger",0
11,"Neutral","2",2.21711455250625,12,"sub-1017",1,3,"Younger",1
12,"Untrustworthy","2",2.31698404949566,6,"sub-1017",1,3,"Younger",1
13,"Neutral","2",3.10091340722283,6,"sub-1017",1,3,"Younger",1
14,"Trustworthy","2",2.08386780398723,12,"sub-1017",1,3,"Younger",1
15,"Untrustworthy","1",0.917081101870281,9,"sub-1017",1,0,"Younger",1
16,"Untrustworthy","1",0.867148060031468,9,"sub-1017",1,0,"Younger",1
17,"Neutral","1",1.23362084953988,9,"sub-1017",1,0,"Younger",1
18,"Trustworthy","4",1.6175664774637,18,"sub-1017",1,9,"Younger",1
19,"Untrustworthy","1",0.933764323184732,9,"sub-1017",1,0,"Younger",1
20,"Trustworthy","3",1.70055364219297,15,"sub-1017",1,6,"Younger",1
21,"Untrustworthy","1",0.867440468660789,9,"sub-1017",1,0,"Younger",1
22,"Untrustworthy","1",0.883838108013151,9,"sub-1017",1,0,"Younger",1
23,"Untrustworthy","1",2.83418666594662,9,"sub-1017",1,0,"Younger",1
24,"Trustworthy","2",2.03388469998026,12,"sub-1017",1,3,"Younger",1
25,"Neutral","1",2.03412078865222,9,"sub-1017",1,0,"Younger",1
26,"Neutral","1",1.91757831032737,9,"sub-1017",1,0,"Younger",1
27,"Trustworthy","3",2.46794712069095,15,"sub-1017",1,6,"Younger",1
28,"Untrustworthy","1",1.81719510709809,9,"sub-1017",1,0,"Younger",1
29,"Trustworthy","3",1.38419024994073,15,"sub-1017",1,6,"Younger",1
30,"Untrustworthy","1",1.21711796583259,9,"sub-1017",1,0,"Younger",1
31,"Trustworthy","4",1.05056905906531,18,"sub-1017",1,9,"Younger",1
32,"Untrustworthy","1",0.932404111023061,9,"sub-1017",1,0,"Younger",1
33,"Untrustworthy","1",0.800204117171234,9,"sub-1017",1,0,"Younger",1
34,"Neutral","1",1.36742567757028,9,"sub-1017",1,0,"Younger",1
35,"Neutral","1",1.06696669840312,9,"sub-1017",1,0,"Younger",1
36,"Neutral","1",0.98397839590325,9,"sub-1017",1,0,"Younger",1
37,"Trustworthy","4",1.25045653294364,18,"sub-1017",1,9,"Younger",1
38,"Trustworthy","4",2.43398846522905,0,"sub-1017",1,9,"Younger",1
39,"Untrustworthy","1",2.08380408848461,9,"sub-1017",1,0,"Younger",1
40,"Neutral","1",1.48378724939539,9,"sub-1017",1,0,"Younger",1
41,"Neutral","1",1.11745497531956,9,"sub-1017",1,0,"Younger",1
42,"Neutral","1",1.05040180588549,9,"sub-1017",1,0,"Younger",1
43,"Neutral","1",1.08366300417401,9,"sub-1017",1,0,"Younger",1
44,"Trustworthy","3",1.78388782886032,15,"sub-1017",1,6,"Younger",1
45,"Untrustworthy","1",0.833833386233891,9,"sub-1017",1,0,"Younger",1
1,"Neutral","3",1.47110615810379,15,"sub-1018",1,6,"Younger",1
2,"Trustworthy","4",0.897845278261229,18,"sub-1018",1,9,"Younger",1
3,"Neutral","4",0.883264668518677,0,"sub-1018",1,9,"Younger",1
4,"Trustworthy","3",1.41673407994676,15,"sub-1018",1,6,"Younger",1
5,"Neutral","2",1.71726758347359,12,"sub-1018",1,3,"Younger",1
6,"Trustworthy","3",2.63375249039382,15,"sub-1018",1,6,"Younger",1
7,"Trustworthy","4",1.20045522449072,18,"sub-1018",1,9,"Younger",1
8,"Untrustworthy","2",1.89730255876202,6,"sub-1018",1,3,"Younger",1
9,"Trustworthy","2",1.8835678860778,12,"sub-1018",1,3,"Younger",1
10,"Trustworthy","3",2.35023273224942,15,"sub-1018",1,6,"Younger",1
11,"Neutral","3",1.84996763023082,15,"sub-1018",1,6,"Younger",1
12,"Neutral","2",1.38351441046689,12,"sub-1018",1,3,"Younger",1
13,"Neutral","4",0.700551935471594,0,"sub-1018",1,9,"Younger",1
14,"Neutral","1",1.98388509824872,9,"sub-1018",1,0,"Younger",1
15,"Untrustworthy","3",1.26759145164397,3,"sub-1018",1,6,"Younger",1
16,"Untrustworthy","2",1.6500488674501,6,"sub-1018",1,3,"Younger",1
17,"Untrustworthy","4",1.45105625514407,0,"sub-1018",1,9,"Younger",1
18,"Neutral","2",1.05062594788615,6,"sub-1018",1,3,"Younger",1
19,"Trustworthy","3",1.16714794619475,15,"sub-1018",1,6,"Younger",1
20,"Neutral","3",1.88359121035319,3,"sub-1018",1,6,"Younger",1
21,"Neutral","1",0.984176937956363,9,"sub-1018",1,0,"Younger",1
22,"Untrustworthy","1",0.899929116480052,9,"sub-1018",1,0,"Younger",1
23,"Untrustworthy","2",2.11683090473525,6,"sub-1018",1,3,"Younger",1
24,"Trustworthy","3",1.01744439394679,15,"sub-1018",1,6,"Younger",1
25,"Neutral","2",1.53335847822018,12,"sub-1018",1,3,"Younger",1
26,"Untrustworthy","1",0.631578198750503,9,"sub-1018",1,0,"Younger",1
27,"Untrustworthy","1",0.733286911970936,9,"sub-1018",1,0,"Younger",1
28,"Neutral","3",1.34991984360386,15,"sub-1018",1,6,"Younger",1
29,"Trustworthy","2",1.20035794458818,12,"sub-1018",1,3,"Younger",1
30,"Trustworthy","3",1.23384328489192,15,"sub-1018",1,6,"Younger",1
31,"Untrustworthy","1",0.749839289113879,9,"sub-1018",1,0,"Younger",1
32,"Neutral","3",0.966643797350116,3,"sub-1018",1,6,"Younger",1
33,"Untrustworthy","1",0.917190328473225,9,"sub-1018",1,0,"Younger",1
34,"Untrustworthy","2",1.38417318323627,6,"sub-1018",1,3,"Younger",1
35,"Neutral","2",1.23387912486214,6,"sub-1018",1,3,"Younger",1
36,"Untrustworthy","1",0.600186936673708,9,"sub-1018",1,0,"Younger",1
37,"Neutral","1",0.80044589471072,9,"sub-1018",1,0,"Younger",1
38,"Trustworthy","2",1.08364821306895,6,"sub-1018",1,3,"Younger",1
39,"Trustworthy","1",0.750568035058677,9,"sub-1018",1,0,"Younger",1
40,"Untrustworthy","1",0.650320796179585,9,"sub-1018",1,0,"Younger",1
41,"Trustworthy","2",1.51658366585616,12,"sub-1018",1,3,"Younger",1
42,"Untrustworthy","1",0.733555996208452,9,"sub-1018",1,0,"Younger",1
43,"Untrustworthy","1",0.783628415665589,9,"sub-1018",1,0,"Younger",1
44,"Trustworthy","3",0.982723996974528,15,"sub-1018",1,6,"Younger",1
45,"Trustworthy","2",1.28370123344939,6,"sub-1018",1,3,"Younger",1
1,"Neutral","2",2.48738603736274,12,"sub-1019",1,3,"Younger",1
2,"Neutral","3",2.46709663257934,3,"sub-1019",1,6,"Younger",1
3,"Trustworthy","2",1.71330527577084,12,"sub-1019",1,3,"Younger",1
4,"Untrustworthy","3",2.99092793662567,3,"sub-1019",1,6,"Younger",1
5,"Untrustworthy","2",1.65037768497132,6,"sub-1019",1,3,"Younger",1
6,"Neutral","2",2.15032193390653,12,"sub-1019",1,3,"Younger",1
7,"Untrustworthy","1",1.46654367295559,9,"sub-1019",1,0,"Younger",1
8,"Trustworthy","2",1.46706477471162,12,"sub-1019",1,3,"Younger",1
9,"Neutral","2",1.75001507555135,12,"sub-1019",1,3,"Younger",1
10,"Untrustworthy","1",1.16695452423301,9,"sub-1019",1,0,"Younger",1
11,"Trustworthy","3",1.13361083716154,15,"sub-1019",1,6,"Younger",1
12,"Neutral","2",1.41692351968959,12,"sub-1019",1,3,"Younger",1
13,"Neutral","2",1.73349569411948,6,"sub-1019",1,3,"Younger",1
14,"Neutral","1",1.55035800149199,9,"sub-1019",1,0,"Younger",1
15,"Untrustworthy","1",1.10065683850553,9,"sub-1019",1,0,"Younger",1
16,"Untrustworthy","1",1.31791531981435,9,"sub-1019",1,0,"Younger",1
17,"Untrustworthy","1",1.11701636237558,9,"sub-1019",1,0,"Younger",1
18,"Untrustworthy","1",1.68427774496377,9,"sub-1019",1,0,"Younger",1
19,"Trustworthy","3",1.48348346306011,15,"sub-1019",1,6,"Younger",1
20,"Neutral","2",1.50025599973742,6,"sub-1019",1,3,"Younger",1
21,"Trustworthy","4",1.71693819703069,18,"sub-1019",1,9,"Younger",1
22,"Trustworthy","4",1.11689803365152,18,"sub-1019",1,9,"Younger",1
23,"Untrustworthy","1",2.93336837692186,9,"sub-1019",1,0,"Younger",1
24,"Trustworthy","3",1.36676462925971,15,"sub-1019",1,6,"Younger",1
25,"Untrustworthy","1",1.25065223057754,9,"sub-1019",1,0,"Younger",1
26,"Trustworthy","4",0.866453447262757,18,"sub-1019",1,9,"Younger",1
27,"Trustworthy","4",1.18373843876179,18,"sub-1019",1,9,"Younger",1
28,"Neutral","1",1.55076077440754,9,"sub-1019",1,0,"Younger",1
29,"Untrustworthy","2",1.03417710855138,6,"sub-1019",1,3,"Younger",1
30,"Neutral","1",1.18385107873473,9,"sub-1019",1,0,"Younger",1
31,"Trustworthy","4",0.950461766682565,18,"sub-1019",1,9,"Younger",1
32,"Untrustworthy","1",0.767288234084845,9,"sub-1019",1,0,"Younger",1
33,"Untrustworthy","1",0.933814954245463,9,"sub-1019",1,0,"Younger",1
34,"Trustworthy","4",0.850396003224887,18,"sub-1019",1,9,"Younger",1
35,"Neutral","1",0.916889386484399,9,"sub-1019",1,0,"Younger",1
36,"Trustworthy","4",0.933592518907972,18,"sub-1019",1,9,"Younger",1
37,"Neutral","1",1.15027585392818,9,"sub-1019",1,0,"Younger",1
38,"Neutral","1",0.93358057225123,9,"sub-1019",1,0,"Younger",1
39,"Untrustworthy","1",1.01685161225032,9,"sub-1019",1,0,"Younger",1
40,"Trustworthy","4",0.817190555972047,18,"sub-1019",1,9,"Younger",1
41,"Neutral","1",1.10067902528681,9,"sub-1019",1,0,"Younger",1
42,"Trustworthy","4",1.06693654728588,18,"sub-1019",1,9,"Younger",1
43,"Untrustworthy","1",0.93353790557012,9,"sub-1019",1,0,"Younger",1
44,"Neutral","2",1.21683409053367,6,"sub-1019",1,3,"Younger",1
45,"Trustworthy","4",0.917084515211172,0,"sub-1019",1,9,"Younger",1
1,"Neutral","2",1.67874985630624,12,"sub-1020",1,3,"Younger",1
2,"Untrustworthy","2",2.49075783905573,6,"sub-1020",1,3,"Younger",1
3,"Untrustworthy","1",1.33337543113157,9,"sub-1020",1,0,"Younger",1
4,"Untrustworthy","1",2.8840508722933,9,"sub-1020",1,0,"Younger",1
5,"Trustworthy","3",1.4138902068371,15,"sub-1020",1,6,"Younger",1
6,"Neutral","2",2.11740263761021,12,"sub-1020",1,3,"Younger",1
7,"Neutral","3",1.61691680690274,15,"sub-1020",1,6,"Younger",1
8,"Neutral","4",0.733719836105593,18,"sub-1020",1,9,"Younger",1
9,"Untrustworthy","1",2.23396218265407,9,"sub-1020",1,0,"Younger",1
10,"Neutral","2",2.01702682988252,12,"sub-1020",1,3,"Younger",1
11,"Neutral","3",0.883516686037183,15,"sub-1020",1,6,"Younger",1
12,"Untrustworthy","1",2.03382894897368,9,"sub-1020",1,0,"Younger",1
13,"Trustworthy","2",1.58381034631748,12,"sub-1020",1,3,"Younger",1
14,"Neutral","4",2.18410309625324,18,"sub-1020",1,9,"Younger",1
15,"Neutral","4",3.18426807387732,18,"sub-1020",1,9,"Younger",1
16,"Neutral","4",1.283628415782,18,"sub-1020",1,9,"Younger",1
17,"Untrustworthy","1",0.750352995237336,9,"sub-1020",1,0,"Younger",1
18,"Trustworthy","3",1.20059972221497,15,"sub-1020",1,6,"Younger",1
19,"Trustworthy","4",1.21717201021966,18,"sub-1020",1,9,"Younger",1
20,"Untrustworthy","2",0.700487651163712,6,"sub-1020",1,3,"Younger",1
21,"Untrustworthy","1",0.633626196999103,9,"sub-1020",1,0,"Younger",1
22,"Trustworthy","4",1.66690503095742,18,"sub-1020",1,9,"Younger",1
23,"Trustworthy","4",2.25069717271253,18,"sub-1020",1,9,"Younger",1
24,"Untrustworthy","1",0.732612779247575,9,"sub-1020",1,0,"Younger",1
25,"Untrustworthy","1",0.8509472560836,9,"sub-1020",1,0,"Younger",1
26,"Untrustworthy","1",0.550594659056515,9,"sub-1020",1,0,"Younger",1
27,"Neutral","3",1.23266113479622,15,"sub-1020",1,6,"Younger",1
28,"Trustworthy","3",2.30035771708935,15,"sub-1020",1,6,"Younger",1
29,"Trustworthy","4",0.683696909924038,18,"sub-1020",1,9,"Younger",1
30,"Trustworthy","4",0.86730222881306,18,"sub-1020",1,9,"Younger",1
31,"Neutral","3",1.16704668407328,15,"sub-1020",1,6,"Younger",1
32,"Untrustworthy","1",0.667048390721902,9,"sub-1020",1,0,"Younger",1
33,"Neutral","4",1.10027966555208,18,"sub-1020",1,9,"Younger",1
34,"Untrustworthy","1",0.684005247429013,9,"sub-1020",1,0,"Younger",1
35,"Untrustworthy","1",0.834029652643949,9,"sub-1020",1,0,"Younger",1
36,"Trustworthy","4",1.00061610608827,18,"sub-1020",1,9,"Younger",1
37,"Trustworthy","4",0.900779035757296,18,"sub-1020",1,9,"Younger",1
38,"Neutral","4",1.03337156260386,0,"sub-1020",1,9,"Younger",1
39,"Trustworthy","3",1.90018568525556,15,"sub-1020",1,6,"Younger",1
40,"Trustworthy","4",3.50031914631836,18,"sub-1020",1,9,"Younger",1
41,"Untrustworthy","1",0.816911800648086,9,"sub-1020",1,0,"Younger",1
42,"Trustworthy","4",1.48363421834074,18,"sub-1020",1,9,"Younger",1
43,"Neutral","1",1.65078159584664,9,"sub-1020",1,0,"Younger",1
44,"Trustworthy","4",1.01698928326368,18,"sub-1020",1,9,"Younger",1
45,"Neutral","2",0.867212344426662,6,"sub-1020",1,3,"Younger",1
1,"Neutral","2",1.66267932788469,12,"sub-1021",1,3,"Younger",1
2,"Trustworthy","2",1.55048088135663,12,"sub-1021",1,3,"Younger",1
3,"Untrustworthy","3",1.73315379221458,3,"sub-1021",1,6,"Younger",1
4,"Neutral","3",1.6335988905048,15,"sub-1021",1,6,"Younger",1
5,"Untrustworthy","1",1.20053145557176,9,"sub-1021",1,0,"Younger",1
6,"Neutral","3",1.73380004940554,15,"sub-1021",1,6,"Younger",1
7,"Trustworthy","3",1.76707148761488,15,"sub-1021",1,6,"Younger",1
8,"Untrustworthy","1",1.21675785945263,9,"sub-1021",1,0,"Younger",1
9,"Trustworthy","4",1.58375231968239,18,"sub-1021",1,9,"Younger",1
10,"Trustworthy","4",1.35042729205452,18,"sub-1021",1,9,"Younger",1
11,"Untrustworthy","1",1.06667144538369,9,"sub-1021",1,0,"Younger",1
12,"Neutral","4",0.916708479984663,0,"sub-1021",1,9,"Younger",1
13,"Neutral","2",1.29991227737628,6,"sub-1021",1,3,"Younger",1
14,"Neutral","1",1.78360566019546,9,"sub-1021",1,0,"Younger",1
15,"Untrustworthy","2",1.5170017988421,6,"sub-1021",1,3,"Younger",1
16,"Trustworthy","3",1.31689302739687,15,"sub-1021",1,6,"Younger",1
17,"Neutral","2",2.28379453113303,12,"sub-1021",1,3,"Younger",1
18,"Trustworthy","4",1.39992570318282,18,"sub-1021",1,9,"Younger",1
19,"Trustworthy","4",1.60058970970567,18,"sub-1021",1,9,"Younger",1
20,"Trustworthy","4",1.06733021803666,18,"sub-1021",1,9,"Younger",1
21,"Neutral","2",1.65025309845805,12,"sub-1021",1,3,"Younger",1
22,"Untrustworthy","2",1.45054141117726,6,"sub-1021",1,3,"Younger",1
23,"Trustworthy","4",1.7975798350526,18,"sub-1021",1,9,"Younger",1
24,"Neutral","2",1.41707029298414,12,"sub-1021",1,3,"Younger",1
25,"Neutral","3",1.33346360875294,15,"sub-1021",1,6,"Younger",1
26,"Neutral","3",0.933881514240056,15,"sub-1021",1,6,"Younger",1
27,"Trustworthy","4",0.96703803690616,18,"sub-1021",1,9,"Younger",1
28,"Trustworthy","4",0.85041591420304,18,"sub-1021",1,9,"Younger",1
29,"Untrustworthy","1",0.733515605214052,9,"sub-1021",1,0,"Younger",1
30,"Untrustworthy","1",0.71699224144686,9,"sub-1021",1,0,"Younger",1
31,"Untrustworthy","1",0.833461902104318,9,"sub-1021",1,0,"Younger",1
32,"Trustworthy","4",0.968279920401983,18,"sub-1021",1,9,"Younger",1
33,"Untrustworthy","1",1.15026845852844,9,"sub-1021",1,0,"Younger",1
34,"Neutral","3",0.817935799830593,15,"sub-1021",1,6,"Younger",1
35,"Trustworthy","4",0.817343586939387,18,"sub-1021",1,9,"Younger",1
36,"Untrustworthy","2",1.71720443689264,6,"sub-1021",1,3,"Younger",1
37,"Trustworthy","4",0.800255886046216,18,"sub-1021",1,9,"Younger",1
38,"Untrustworthy","1",0.583585635293275,9,"sub-1021",1,0,"Younger",1
39,"Trustworthy","4",0.783471971401013,18,"sub-1021",1,9,"Younger",1
40,"Neutral","3",1.01708770089317,15,"sub-1021",1,6,"Younger",1
41,"Untrustworthy","1",0.966965219238773,9,"sub-1021",1,0,"Younger",1
42,"Neutral","4",1.03389323339798,18,"sub-1021",1,9,"Younger",1
43,"Untrustworthy","1",1.26722338085528,9,"sub-1021",1,0,"Younger",1
44,"Neutral","4",0.966999921482056,0,"sub-1021",1,9,"Younger",1
45,"Untrustworthy","1",0.950047616031952,9,"sub-1021",1,0,"Younger",1
1,"Neutral","1",1.90394350000042,9,"sub-1022",1,0,"Younger",1
2,"Neutral","1",2.28386850000061,9,"sub-1022",1,0,"Younger",1
3,"Trustworthy","2",3.51292379999995,12,"sub-1022",1,3,"Younger",1
4,"Untrustworthy","2",3.54753879999953,6,"sub-1022",1,3,"Younger",1
5,"Trustworthy","1",1.21713080000063,9,"sub-1022",1,0,"Younger",1
6,"Trustworthy","3",3.3170970000001,15,"sub-1022",1,6,"Younger",1
7,"Neutral","4",2.15159440000025,18,"sub-1022",1,9,"Younger",1
8,"Neutral","2",2.21713869999985,6,"sub-1022",1,3,"Younger",1
9,"Untrustworthy","4",1.60079429999951,0,"sub-1022",1,9,"Younger",1
10,"Neutral","1",1.7839041999996,9,"sub-1022",1,0,"Younger",1
11,"Neutral","1",1.18390030000046,9,"sub-1022",1,0,"Younger",1
12,"Trustworthy","4",2.55056710000008,18,"sub-1022",1,9,"Younger",1
13,"Untrustworthy","1",1.30043919999935,9,"sub-1022",1,0,"Younger",1
14,"Trustworthy","1",1.28373459999966,9,"sub-1022",1,0,"Younger",1
15,"Neutral","2",2.86690219999946,12,"sub-1022",1,3,"Younger",1
16,"Trustworthy","2",2.15038619999996,12,"sub-1022",1,3,"Younger",1
17,"Neutral","2",3.03396229999998,12,"sub-1022",1,3,"Younger",1
18,"Trustworthy","3",3.0170834999999,15,"sub-1022",1,6,"Younger",1
19,"Trustworthy","3",2.60052790000009,15,"sub-1022",1,6,"Younger",1
20,"Untrustworthy","4",2.0003684000003,0,"sub-1022",1,9,"Younger",1
21,"Trustworthy","3",2.18367080000007,15,"sub-1022",1,6,"Younger",1
22,"Trustworthy","3",2.4671959999996,15,"sub-1022",1,6,"Younger",1
23,"Untrustworthy","1",2.31728480000038,9,"sub-1022",1,0,"Younger",1
24,"Trustworthy","3",1.71692380000059,15,"sub-1022",1,6,"Younger",1
25,"Untrustworthy","2",2.58416089999992,6,"sub-1022",1,3,"Younger",1
26,"Untrustworthy","1",1.45034150000083,9,"sub-1022",1,0,"Younger",1
27,"Neutral","3",2.4505081999996,3,"sub-1022",1,6,"Younger",1
28,"Untrustworthy","2",2.18369439999969,6,"sub-1022",1,3,"Younger",1
29,"Untrustworthy","1",0.683639699999731,9,"sub-1022",1,0,"Younger",1
30,"Neutral","1",1.88397220000024,9,"sub-1022",1,0,"Younger",1
31,"Trustworthy","3",2.06714370000009,15,"sub-1022",1,6,"Younger",1
32,"Untrustworthy","1",0.9337914000007,9,"sub-1022",1,0,"Younger",1
33,"Trustworthy","3",1.50054180000006,15,"sub-1022",1,6,"Younger",1
34,"Neutral","1",2.21706569999969,9,"sub-1022",1,0,"Younger",1
35,"Untrustworthy","1",1.75098270000035,9,"sub-1022",1,0,"Younger",1
36,"Trustworthy","4",0.767071600000236,18,"sub-1022",1,9,"Younger",1
37,"Untrustworthy","1",1.95170210000015,9,"sub-1022",1,0,"Younger",1
38,"Neutral","2",1.18441870000061,12,"sub-1022",1,3,"Younger",1
39,"Untrustworthy","1",1.11714140000004,9,"sub-1022",1,0,"Younger",1
40,"Neutral","2",1.03393849999975,12,"sub-1022",1,3,"Younger",1
41,"Neutral","2",1.46733279999989,6,"sub-1022",1,3,"Younger",1
42,"Untrustworthy","1",0.817457500000273,9,"sub-1022",1,0,"Younger",1
43,"Neutral","1",2.55031970000073,9,"sub-1022",1,0,"Younger",1
44,"Untrustworthy","2",1.95068950000041,6,"sub-1022",1,3,"Younger",1
45,"Trustworthy","4",1.28324770000017,18,"sub-1022",1,9,"Younger",1
1,"Neutral","1",3.8216345999972,9,"sub-1023",1,0,"Younger",1
2,"Neutral","2",2.30056020000484,12,"sub-1023",1,3,"Younger",1
3,"Untrustworthy","1",2.66381230000115,9,"sub-1023",1,0,"Younger",1
4,"Neutral","2",3.90080029999081,12,"sub-1023",1,3,"Younger",1
5,"Trustworthy","3",2.73219890000473,15,"sub-1023",1,6,"Younger",1
6,"Trustworthy","4",1.83384940000542,18,"sub-1023",1,9,"Younger",1
7,"Neutral","3",1.78383380000014,15,"sub-1023",1,6,"Younger",1
8,"Untrustworthy","2",1.71715699999186,12,"sub-1023",1,3,"Younger",1
9,"Untrustworthy","3",1.56714800000191,3,"sub-1023",1,6,"Younger",1
10,"Trustworthy","4",1.5505087999918,18,"sub-1023",1,9,"Younger",1
11,"Untrustworthy","2",1.98389049999241,6,"sub-1023",1,3,"Younger",1
12,"Trustworthy","4",1.33381360000931,18,"sub-1023",1,9,"Younger",1
13,"Untrustworthy","1",1.08406000000832,9,"sub-1023",1,0,"Younger",1
14,"Trustworthy","4",1.38399529999879,18,"sub-1023",1,9,"Younger",1
15,"Untrustworthy","1",1.38380979999783,9,"sub-1023",1,0,"Younger",1
16,"Untrustworthy","2",1.2836493000068,6,"sub-1023",1,3,"Younger",1
17,"Untrustworthy","1",0.833977700007381,9,"sub-1023",1,0,"Younger",1
18,"Trustworthy","4",1.11719010000525,18,"sub-1023",1,9,"Younger",1
19,"Neutral","2",1.45064369999454,12,"sub-1023",1,3,"Younger",1
20,"Trustworthy","3",1.68338640000729,15,"sub-1023",1,6,"Younger",1
21,"Neutral","3",1.85056469999836,15,"sub-1023",1,6,"Younger",1
22,"Neutral","3",1.81704330000503,3,"sub-1023",1,6,"Younger",1
23,"Trustworthy","3",2.96723669998755,15,"sub-1023",1,6,"Younger",1
24,"Neutral","2",1.25054029999592,12,"sub-1023",1,3,"Younger",1
25,"Untrustworthy","2",1.65066410000145,6,"sub-1023",1,3,"Younger",1
26,"Neutral","3",1.40047120000236,15,"sub-1023",1,6,"Younger",1
27,"Trustworthy","4",1.43396819999907,18,"sub-1023",1,9,"Younger",1
28,"Untrustworthy","1",1.050570899999,9,"sub-1023",1,0,"Younger",1
29,"Untrustworthy","1",0.950475999998162,9,"sub-1023",1,0,"Younger",1
30,"Neutral","3",1.33370449999347,3,"sub-1023",1,6,"Younger",1
31,"Untrustworthy","1",0.600283799998579,9,"sub-1023",1,0,"Younger",1
32,"Neutral","2",1.56708429999708,12,"sub-1023",1,3,"Younger",1
33,"Trustworthy","4",1.21701880000182,18,"sub-1023",1,9,"Younger",1
34,"Trustworthy","1",0.917073899996467,9,"sub-1023",1,0,"Younger",1
35,"Untrustworthy","1",1.20056280000426,9,"sub-1023",1,0,"Younger",1
36,"Neutral","2",1.55044399999315,12,"sub-1023",1,3,"Younger",1
37,"Trustworthy","4",1.11705710001115,18,"sub-1023",1,9,"Younger",1
38,"Untrustworthy","1",1.16695449998952,9,"sub-1023",1,0,"Younger",1
39,"Neutral","2",1.45010750000074,6,"sub-1023",1,3,"Younger",1
40,"Trustworthy","4",0.950436500002979,18,"sub-1023",1,9,"Younger",1
41,"Neutral","2",1.30041239999991,6,"sub-1023",1,3,"Younger",1
42,"Untrustworthy","1",1.16704369999934,9,"sub-1023",1,0,"Younger",1
43,"Neutral","1",1.21697550000681,9,"sub-1023",1,0,"Younger",1
44,"Trustworthy","4",1.05036730000575,18,"sub-1023",1,9,"Younger",1
45,"Trustworthy","4",0.850415599998087,18,"sub-1023",1,9,"Younger",1
1,"Trustworthy","2",2.97169879998546,12,"sub-1024",1,3,"Younger",1
2,"Neutral","None",NA,9,"sub-1024",1,NA,"Younger",0
3,"Trustworthy","4",1.18432529998245,18,"sub-1024",1,9,"Younger",1
4,"Neutral","4",1.65041269996436,18,"sub-1024",1,9,"Younger",1
5,"Neutral","4",1.30152390000876,18,"sub-1024",1,9,"Younger",1
6,"Trustworthy","4",1.21718319994397,18,"sub-1024",1,9,"Younger",1
7,"Trustworthy","4",0.900468299980275,18,"sub-1024",1,9,"Younger",1
8,"Neutral","4",1.13398210000014,0,"sub-1024",1,9,"Younger",1
9,"Neutral","2",2.66725970001426,12,"sub-1024",1,3,"Younger",1
10,"Trustworthy","4",1.63398829998914,18,"sub-1024",1,9,"Younger",1
11,"Untrustworthy","3",1.72876570001245,3,"sub-1024",1,6,"Younger",1
12,"Untrustworthy","1",2.06711330002872,9,"sub-1024",1,0,"Younger",1
13,"Neutral","3",1.70059229998151,3,"sub-1024",1,6,"Younger",1
14,"Neutral","1",2.41713919996982,9,"sub-1024",1,0,"Younger",1
15,"Untrustworthy","1",2.36697199998889,9,"sub-1024",1,0,"Younger",1
16,"Untrustworthy","1",2.86706710001454,9,"sub-1024",1,0,"Younger",1
17,"Trustworthy","4",1.40035090001766,18,"sub-1024",1,9,"Younger",1
18,"Trustworthy","4",1.35070220002672,18,"sub-1024",1,9,"Younger",1
19,"Untrustworthy","1",1.55023009999422,9,"sub-1024",1,0,"Younger",1
20,"Untrustworthy","1",1.0838889000006,9,"sub-1024",1,0,"Younger",1
21,"Neutral","1",1.48410500003956,9,"sub-1024",1,0,"Younger",1
22,"Untrustworthy","1",1.25052230001893,9,"sub-1024",1,0,"Younger",1
23,"Trustworthy","4",1.98138519999338,18,"sub-1024",1,9,"Younger",1
24,"Neutral","1",1.40026639995631,9,"sub-1024",1,0,"Younger",1
25,"Neutral","1",1.23381220002193,9,"sub-1024",1,0,"Younger",1
26,"Neutral","1",2.08388849999756,9,"sub-1024",1,0,"Younger",1
27,"Neutral","1",1.45040800003335,9,"sub-1024",1,0,"Younger",1
28,"Trustworthy","4",1.26692590001039,18,"sub-1024",1,9,"Younger",1
29,"Trustworthy","4",1.1004879999673,18,"sub-1024",1,9,"Younger",1
30,"Neutral","1",1.21828829997685,9,"sub-1024",1,0,"Younger",1
31,"Trustworthy","4",2.30030469998019,18,"sub-1024",1,9,"Younger",1
32,"Trustworthy","4",1.36706680001225,18,"sub-1024",1,9,"Younger",1
33,"Untrustworthy","1",1.41716140002245,9,"sub-1024",1,0,"Younger",1
34,"Neutral","1",1.13423650001641,9,"sub-1024",1,0,"Younger",1
35,"Untrustworthy","1",1.15055500000017,9,"sub-1024",1,0,"Younger",1
36,"Untrustworthy","1",0.850437299988698,9,"sub-1024",1,0,"Younger",1
37,"Trustworthy","4",0.93373160000192,18,"sub-1024",1,9,"Younger",1
38,"Untrustworthy","1",0.817184699990321,9,"sub-1024",1,0,"Younger",1
39,"Untrustworthy","1",1.20060730003752,9,"sub-1024",1,0,"Younger",1
40,"Trustworthy","4",0.883699600002728,18,"sub-1024",1,9,"Younger",1
41,"Untrustworthy","1",0.900614200043492,9,"sub-1024",1,0,"Younger",1
42,"Untrustworthy","1",0.851660899992567,9,"sub-1024",1,0,"Younger",1
43,"Untrustworthy","1",0.916932900028769,9,"sub-1024",1,0,"Younger",1
44,"Neutral","1",1.20039499999257,9,"sub-1024",1,0,"Younger",1
45,"Trustworthy","4",0.883793600019999,18,"sub-1024",1,9,"Younger",1
1,"Neutral","2",3.09079350001412,12,"sub-1025",1,3,"Younger",1
2,"Untrustworthy","2",1.03014360001544,6,"sub-1025",1,3,"Younger",1
3,"Trustworthy","2",0.614166699990164,12,"sub-1025",1,3,"Younger",1
4,"Trustworthy","2",1.0502462000004,12,"sub-1025",1,3,"Younger",1
5,"Neutral","2",1.58402170002228,12,"sub-1025",1,3,"Younger",1
6,"Neutral","2",1.05045739997877,12,"sub-1025",1,3,"Younger",1
7,"Untrustworthy","4",1.25042090000352,0,"sub-1025",1,9,"Younger",1
8,"Untrustworthy","4",0.816980200004764,18,"sub-1025",1,9,"Younger",1
9,"Untrustworthy","2",0.833630800014362,6,"sub-1025",1,3,"Younger",1
10,"Untrustworthy","4",1.6505926999962,0,"sub-1025",1,9,"Younger",1
11,"Neutral","2",1.11699090001639,6,"sub-1025",1,3,"Younger",1
12,"Trustworthy","1",0.717212999996264,9,"sub-1025",1,0,"Younger",1
13,"Trustworthy","1",0.817130499985069,9,"sub-1025",1,0,"Younger",1
14,"Untrustworthy","2",0.583951600012369,6,"sub-1025",1,3,"Younger",1
15,"Neutral","1",0.483749800012447,9,"sub-1025",1,0,"Younger",1
16,"Neutral","1",2.33391789998859,9,"sub-1025",1,0,"Younger",1
17,"Trustworthy","1",1.08400220004842,9,"sub-1025",1,0,"Younger",1
18,"Untrustworthy","1",0.733835099963471,9,"sub-1025",1,0,"Younger",1
19,"Neutral","1",0.717395300045609,9,"sub-1025",1,0,"Younger",1
20,"Trustworthy","4",0.566969299979974,18,"sub-1025",1,9,"Younger",1
21,"Untrustworthy","4",0.800467900000513,0,"sub-1025",1,9,"Younger",1
22,"Untrustworthy","2",0.467237300006673,6,"sub-1025",1,3,"Younger",1
23,"Trustworthy","4",2.05032589996699,18,"sub-1025",1,9,"Younger",1
24,"Trustworthy","1",0.70036820002133,9,"sub-1025",1,0,"Younger",1
25,"Neutral","1",0.550499200006016,9,"sub-1025",1,0,"Younger",1
26,"Trustworthy","4",1.26727200002642,18,"sub-1025",1,9,"Younger",1
27,"Neutral","1",0.733950700028799,9,"sub-1025",1,0,"Younger",1
28,"Neutral","4",1.26692130003357,0,"sub-1025",1,9,"Younger",1
29,"Neutral","1",0.866967800015118,9,"sub-1025",1,0,"Younger",1
30,"Trustworthy","1",0.967201300023589,9,"sub-1025",1,0,"Younger",1
31,"Neutral","4",0.633639300009236,18,"sub-1025",1,9,"Younger",1
32,"Trustworthy","1",0.716872100019827,9,"sub-1025",1,0,"Younger",1
33,"Trustworthy","4",2.88417249999475,18,"sub-1025",1,9,"Younger",1
34,"Neutral","1",0.733726000005845,9,"sub-1025",1,0,"Younger",1
35,"Untrustworthy","1",0.833722900017165,9,"sub-1025",1,0,"Younger",1
36,"Neutral","1",0.533885599987116,9,"sub-1025",1,0,"Younger",1
37,"Trustworthy","4",0.666915000008885,18,"sub-1025",1,9,"Younger",1
38,"Untrustworthy","1",0.817006300028879,9,"sub-1025",1,0,"Younger",1
39,"Trustworthy","1",0.950733800011221,9,"sub-1025",1,0,"Younger",1
40,"Trustworthy","1",0.550774200004525,9,"sub-1025",1,0,"Younger",1
41,"Neutral","3",0.917142699996475,3,"sub-1025",1,6,"Younger",1
42,"Untrustworthy","None",NA,9,"sub-1025",1,NA,"Younger",0
43,"Untrustworthy","1",0.500422100012656,9,"sub-1025",1,0,"Younger",1
44,"Untrustworthy","1",0.717326399986632,9,"sub-1025",1,0,"Younger",1
45,"Untrustworthy","1",0.700484699977096,9,"sub-1025",1,0,"Younger",1
1,"Trustworthy","2",2.92741810006555,12,"sub-1026",1,3,"Younger",1
2,"Trustworthy","3",3.18413099995814,15,"sub-1026",1,6,"Younger",1
3,"Neutral","2",1.80061060003936,12,"sub-1026",1,3,"Younger",1
4,"Trustworthy","3",2.65065440000035,15,"sub-1026",1,6,"Younger",1
5,"Neutral","2",2.466852499987,12,"sub-1026",1,3,"Younger",1
6,"Neutral","3",1.75053650001064,15,"sub-1026",1,6,"Younger",1
7,"Untrustworthy","2",1.70025650004391,6,"sub-1026",1,3,"Younger",1
8,"Untrustworthy","2",1.2505516000092,12,"sub-1026",1,3,"Younger",1
9,"Untrustworthy","None",NA,9,"sub-1026",1,NA,"Younger",0
10,"Untrustworthy","3",1.21735509997234,3,"sub-1026",1,6,"Younger",1
11,"Trustworthy","3",2.23322050005663,15,"sub-1026",1,6,"Younger",1
12,"Untrustworthy","2",1.15063920000102,6,"sub-1026",1,3,"Younger",1
13,"Untrustworthy","2",1.16724430001341,6,"sub-1026",1,3,"Younger",1
14,"Neutral","3",2.15031610010192,15,"sub-1026",1,6,"Younger",1
15,"Neutral","2",1.03400210000109,12,"sub-1026",1,3,"Younger",1
16,"Untrustworthy","2",2.00221129995771,6,"sub-1026",1,3,"Younger",1
17,"Trustworthy","3",1.83371789997909,15,"sub-1026",1,6,"Younger",1
18,"Neutral","3",1.83391629997641,15,"sub-1026",1,6,"Younger",1
19,"Neutral","3",1.26672019995749,15,"sub-1026",1,6,"Younger",1
20,"Trustworthy","3",1.2671180999605,15,"sub-1026",1,6,"Younger",1
21,"Neutral","2",2.59989660000429,12,"sub-1026",1,3,"Younger",1
22,"Untrustworthy","3",1.38409479998518,3,"sub-1026",1,6,"Younger",1
23,"Trustworthy","2",3.13398179993965,12,"sub-1026",1,3,"Younger",1
24,"Trustworthy","2",3.36744060006458,12,"sub-1026",1,3,"Younger",1
25,"Untrustworthy","2",1.43381670000963,6,"sub-1026",1,3,"Younger",1
26,"Trustworthy","3",1.43349189998116,15,"sub-1026",1,6,"Younger",1
27,"Neutral","2",1.2837523999624,6,"sub-1026",1,3,"Younger",1
28,"Trustworthy","2",2.20060069998726,12,"sub-1026",1,3,"Younger",1
29,"Untrustworthy","2",1.28378589998465,6,"sub-1026",1,3,"Younger",1
30,"Trustworthy","2",3.56716530001722,12,"sub-1026",1,3,"Younger",1
31,"Untrustworthy","2",1.45054730004631,6,"sub-1026",1,3,"Younger",1
32,"Neutral","3",2.21727519994602,15,"sub-1026",1,6,"Younger",1
33,"Trustworthy","2",2.38387489994057,12,"sub-1026",1,3,"Younger",1
34,"Neutral","3",2.54962419997901,15,"sub-1026",1,6,"Younger",1
35,"Trustworthy","3",1.75045369996224,15,"sub-1026",1,6,"Younger",1
36,"Neutral","3",2.01703330001328,15,"sub-1026",1,6,"Younger",1
37,"Untrustworthy","1",0.86716849997174,9,"sub-1026",1,0,"Younger",1
38,"Neutral","3",1.05051650002133,15,"sub-1026",1,6,"Younger",1
39,"Neutral","2",2.16768959991168,6,"sub-1026",1,3,"Younger",1
40,"Neutral","2",2.40059420000762,12,"sub-1026",1,3,"Younger",1
41,"Trustworthy","3",2.48426759999711,3,"sub-1026",1,6,"Younger",1
42,"Trustworthy","2",2.1851029000245,12,"sub-1026",1,3,"Younger",1
43,"Untrustworthy","2",0.833898299955763,6,"sub-1026",1,3,"Younger",1
44,"Untrustworthy","2",1.16747059999034,6,"sub-1026",1,3,"Younger",1
45,"Untrustworthy","1",0.966676000040025,9,"sub-1026",1,0,"Younger",1
1,"Trustworthy","2",2.7183310999535,12,"sub-1028",1,3,"Younger",1
2,"Untrustworthy","3",1.44837670004927,3,"sub-1028",1,6,"Younger",1
3,"Neutral","4",0.895637599984184,18,"sub-1028",1,9,"Younger",1
4,"Neutral","3",0.933706100098789,15,"sub-1028",1,6,"Younger",1
5,"Trustworthy","2",1.33381760003977,12,"sub-1028",1,3,"Younger",1
6,"Untrustworthy","4",1.06723479996435,0,"sub-1028",1,9,"Younger",1
7,"Neutral","3",0.50056489999406,15,"sub-1028",1,6,"Younger",1
8,"Untrustworthy","2",0.717167899943888,12,"sub-1028",1,3,"Younger",1
9,"Trustworthy","3",1.03348500002176,15,"sub-1028",1,6,"Younger",1
10,"Neutral","2",1.11717430013232,12,"sub-1028",1,3,"Younger",1
11,"Trustworthy","3",1.46735569997691,15,"sub-1028",1,6,"Younger",1
12,"Untrustworthy","3",2.2170502000954,3,"sub-1028",1,6,"Younger",1
13,"Untrustworthy","1",1.25170840020292,9,"sub-1028",1,0,"Younger",1
14,"Neutral","3",1.78395799989812,15,"sub-1028",1,6,"Younger",1
15,"Neutral","4",0.983809000113979,18,"sub-1028",1,9,"Younger",1
16,"Neutral","4",1.45045110001229,18,"sub-1028",1,9,"Younger",1
17,"Untrustworthy","1",1.16706279991195,9,"sub-1028",1,0,"Younger",1
18,"Untrustworthy","2",3.11705469992012,6,"sub-1028",1,3,"Younger",1
19,"Trustworthy","3",1.13403659989126,15,"sub-1028",1,6,"Younger",1
20,"Neutral","3",1.23386080004275,15,"sub-1028",1,6,"Younger",1
21,"Trustworthy","4",1.18389789992943,18,"sub-1028",1,9,"Younger",1
22,"Trustworthy","4",1.05044290004298,18,"sub-1028",1,9,"Younger",1
23,"Trustworthy","3",3.88562109996565,15,"sub-1028",1,6,"Younger",1
24,"Untrustworthy","1",0.918024400016293,9,"sub-1028",1,0,"Younger",1
25,"Trustworthy","4",1.53377490001731,18,"sub-1028",1,9,"Younger",1
26,"Untrustworthy","2",1.28394380002283,6,"sub-1028",1,3,"Younger",1
27,"Untrustworthy","1",0.633982899831608,9,"sub-1028",1,0,"Younger",1
28,"Trustworthy","3",0.833757299929857,15,"sub-1028",1,6,"Younger",1
29,"Untrustworthy","1",0.767520100111142,9,"sub-1028",1,0,"Younger",1
30,"Trustworthy","4",0.917257899884135,18,"sub-1028",1,9,"Younger",1
31,"Trustworthy","4",0.883671600138769,18,"sub-1028",1,9,"Younger",1
32,"Trustworthy","4",0.867215499980375,18,"sub-1028",1,9,"Younger",1
33,"Neutral","3",1.60082129994407,15,"sub-1028",1,6,"Younger",1
34,"Trustworthy","4",0.849855800159276,18,"sub-1028",1,9,"Younger",1
35,"Neutral","4",0.918188899988309,18,"sub-1028",1,9,"Younger",1
36,"Untrustworthy","1",0.75040870020166,9,"sub-1028",1,0,"Younger",1
37,"Untrustworthy","1",0.817203700076789,9,"sub-1028",1,0,"Younger",1
38,"Neutral","4",0.817278199829161,18,"sub-1028",1,9,"Younger",1
39,"Neutral","4",0.617161699803546,0,"sub-1028",1,9,"Younger",1
40,"Trustworthy","4",1.28395730000921,18,"sub-1028",1,9,"Younger",1
41,"Neutral","3",0.817149000009522,3,"sub-1028",1,6,"Younger",1
42,"Untrustworthy","1",0.767136299982667,9,"sub-1028",1,0,"Younger",1
43,"Neutral","2",0.817490499932319,12,"sub-1028",1,3,"Younger",1
44,"Neutral","2",1.36820810008794,6,"sub-1028",1,3,"Younger",1
45,"Untrustworthy","1",0.650340300053358,9,"sub-1028",1,0,"Younger",1
1,"Untrustworthy","None",NA,9,"sub-1029",1,NA,"Younger",0
2,"Neutral","3",2.4467073,15,"sub-1029",1,6,"Younger",1
3,"Untrustworthy","4",2.6174336,0,"sub-1029",1,9,"Younger",1
4,"Untrustworthy","1",1.3338883,9,"sub-1029",1,0,"Younger",1
5,"Trustworthy","3",2.830851,15,"sub-1029",1,6,"Younger",1
6,"Trustworthy","4",2.6337549,18,"sub-1029",1,9,"Younger",1
7,"Neutral","2",2.7837225,12,"sub-1029",1,3,"Younger",1
8,"Neutral","4",1.7337944,0,"sub-1029",1,9,"Younger",1
9,"Trustworthy","4",1.784988,18,"sub-1029",1,9,"Younger",1
10,"Trustworthy","4",2.0005102,18,"sub-1029",1,9,"Younger",1
11,"Untrustworthy","None",NA,9,"sub-1029",1,NA,"Younger",0
12,"Untrustworthy","4",1.7339024,0,"sub-1029",1,9,"Younger",1
13,"Neutral","1",1.0842418,9,"sub-1029",1,0,"Younger",1
14,"Untrustworthy","2",2.1338189,6,"sub-1029",1,3,"Younger",1
15,"Trustworthy","4",3.5342379,18,"sub-1029",1,9,"Younger",1
16,"Neutral","1",0.9502889,9,"sub-1029",1,0,"Younger",1
17,"Neutral","1",1.0672613,9,"sub-1029",1,0,"Younger",1
18,"Untrustworthy","3",2.9172011,3,"sub-1029",1,6,"Younger",1
19,"Neutral","1",1.0670788,9,"sub-1029",1,0,"Younger",1
20,"Neutral","1",0.9840224,9,"sub-1029",1,0,"Younger",1
21,"Untrustworthy","1",1.683985,9,"sub-1029",1,0,"Younger",1
22,"Trustworthy","4",1.7003878,18,"sub-1029",1,9,"Younger",1
23,"Neutral","1",1.3839618,9,"sub-1029",1,0,"Younger",1
24,"Neutral","2",1.3171958,12,"sub-1029",1,3,"Younger",1
25,"Untrustworthy","2",2.183982,6,"sub-1029",1,3,"Younger",1
26,"Untrustworthy","1",1.3505082,9,"sub-1029",1,0,"Younger",1
27,"Neutral","2",1.5674082,6,"sub-1029",1,3,"Younger",1
28,"Neutral","1",1.4673719,9,"sub-1029",1,0,"Younger",1
29,"Untrustworthy","1",2.6671501,9,"sub-1029",1,0,"Younger",1
30,"Trustworthy","4",0.8340189,18,"sub-1029",1,9,"Younger",1
31,"Untrustworthy","2",2.3174914,6,"sub-1029",1,3,"Younger",1
32,"Trustworthy","4",1.0845251,18,"sub-1029",1,9,"Younger",1
33,"Trustworthy","4",0.8838317,18,"sub-1029",1,9,"Younger",1
34,"Trustworthy","4",0.7665749,18,"sub-1029",1,9,"Younger",1
35,"Trustworthy","4",0.7672713,18,"sub-1029",1,9,"Younger",1
36,"Trustworthy","4",1.2169048,18,"sub-1029",1,9,"Younger",1
37,"Untrustworthy","1",2.2005194,9,"sub-1029",1,0,"Younger",1
38,"Untrustworthy","2",3.1835259,6,"sub-1029",1,3,"Younger",1
39,"Untrustworthy","1",0.7836588,9,"sub-1029",1,0,"Younger",1
40,"Neutral","1",0.9336435,9,"sub-1029",1,0,"Younger",1
41,"Trustworthy","4",0.9671348,0,"sub-1029",1,9,"Younger",1
42,"Neutral","1",0.9836466,9,"sub-1029",1,0,"Younger",1
43,"Trustworthy","4",0.9672494,18,"sub-1029",1,9,"Younger",1
44,"Trustworthy","4",0.7339132,18,"sub-1029",1,9,"Younger",1
45,"Neutral","1",0.8507607,9,"sub-1029",1,0,"Younger",1
1,"Untrustworthy","None",NA,9,"sub-1030",1,NA,"Younger",0
2,"Untrustworthy","2",1.01697880000575,6,"sub-1030",1,3,"Younger",1
3,"Trustworthy","2",1.43379460001597,12,"sub-1030",1,3,"Younger",1
4,"Trustworthy","3",1.93410690000746,15,"sub-1030",1,6,"Younger",1
5,"Untrustworthy","1",1.68401969998376,9,"sub-1030",1,0,"Younger",1
6,"Untrustworthy","1",1.01709440001287,9,"sub-1030",1,0,"Younger",1
7,"Neutral","2",1.46720370001276,12,"sub-1030",1,3,"Younger",1
8,"Untrustworthy","1",1.15067740000086,9,"sub-1030",1,0,"Younger",1
9,"Neutral","3",1.00043820001883,15,"sub-1030",1,6,"Younger",1
10,"Neutral","3",1.55044859999907,15,"sub-1030",1,6,"Younger",1
11,"Trustworthy","3",1.60049760001129,15,"sub-1030",1,6,"Younger",1
12,"Untrustworthy","1",0.800657600018894,9,"sub-1030",1,0,"Younger",1
13,"Trustworthy","3",1.60053409999819,15,"sub-1030",1,6,"Younger",1
14,"Trustworthy","4",2.71747110001161,18,"sub-1030",1,9,"Younger",1
15,"Neutral","3",1.53378800000064,15,"sub-1030",1,6,"Younger",1
16,"Neutral","4",2.33401209997828,18,"sub-1030",1,9,"Younger",1
17,"Neutral","3",3.35051089999615,15,"sub-1030",1,6,"Younger",1
18,"Neutral","4",1.31679270000313,18,"sub-1030",1,9,"Younger",1
19,"Untrustworthy","1",0.833842199994251,9,"sub-1030",1,0,"Younger",1
20,"Untrustworthy","1",0.600504800007911,9,"sub-1030",1,0,"Younger",1
21,"Trustworthy","3",1.10052710000309,15,"sub-1030",1,6,"Younger",1
22,"Trustworthy","3",1.58401199997752,15,"sub-1030",1,6,"Younger",1
23,"Untrustworthy","1",1.80050419998588,9,"sub-1030",1,0,"Younger",1
24,"Neutral","3",1.05052940000314,15,"sub-1030",1,6,"Younger",1
25,"Untrustworthy","1",2.40066370001296,9,"sub-1030",1,0,"Younger",1
26,"Trustworthy","3",1.0336056999804,15,"sub-1030",1,6,"Younger",1
27,"Neutral","4",1.00029450000147,0,"sub-1030",1,9,"Younger",1
28,"Trustworthy","3",1.36700589998509,15,"sub-1030",1,6,"Younger",1
29,"Untrustworthy","2",2.30157630000031,6,"sub-1030",1,3,"Younger",1
30,"Untrustworthy","1",0.933748400013428,9,"sub-1030",1,0,"Younger",1
31,"Neutral","1",0.950620800023898,9,"sub-1030",1,0,"Younger",1
32,"Trustworthy","3",1.48368699999992,15,"sub-1030",1,6,"Younger",1
33,"Neutral","1",0.800432999996701,9,"sub-1030",1,0,"Younger",1
34,"Untrustworthy","1",0.900463899975875,9,"sub-1030",1,0,"Younger",1
35,"Trustworthy","4",1.83391139999731,18,"sub-1030",1,9,"Younger",1
36,"Trustworthy","4",0.80019410001114,18,"sub-1030",1,9,"Younger",1
37,"Trustworthy","4",2.43348330000299,18,"sub-1030",1,9,"Younger",1
38,"Neutral","1",0.667125899984967,9,"sub-1030",1,0,"Younger",1
39,"Untrustworthy","1",0.883755699993344,9,"sub-1030",1,0,"Younger",1
40,"Untrustworthy","1",0.65054939998663,9,"sub-1030",1,0,"Younger",1
41,"Neutral","1",0.733708700019633,9,"sub-1030",1,0,"Younger",1
42,"Neutral","1",0.600328699976671,9,"sub-1030",1,0,"Younger",1
43,"Neutral","1",0.667269400000805,9,"sub-1030",1,0,"Younger",1
44,"Trustworthy","3",2.06731739998213,15,"sub-1030",1,6,"Younger",1
45,"Trustworthy","4",0.917001599998912,18,"sub-1030",1,9,"Younger",1
1,"Untrustworthy","1",2.14048860000912,9,"sub-1032",1,0,"Younger",1
2,"Neutral","2",2.0308662999887,12,"sub-1032",1,3,"Younger",1
3,"Neutral","2",2.23368439998012,12,"sub-1032",1,3,"Younger",1
4,"Trustworthy","1",1.61410690005869,9,"sub-1032",1,0,"Younger",1
5,"Trustworthy","2",3.78381340007763,12,"sub-1032",1,3,"Younger",1
6,"Untrustworthy","1",1.68380650004838,9,"sub-1032",1,0,"Younger",1
7,"Trustworthy","2",1.58376539999153,12,"sub-1032",1,3,"Younger",1
8,"Untrustworthy","2",2.10041049995925,12,"sub-1032",1,3,"Younger",1
9,"Trustworthy","2",1.51722650008742,12,"sub-1032",1,3,"Younger",1
10,"Untrustworthy","1",1.73361570003908,9,"sub-1032",1,0,"Younger",1
11,"Untrustworthy","1",2.41730510001071,9,"sub-1032",1,0,"Younger",1
12,"Neutral","2",1.80045260000043,6,"sub-1032",1,3,"Younger",1
13,"Untrustworthy","1",1.90082880004775,9,"sub-1032",1,0,"Younger",1
14,"Neutral","1",1.43379330006428,9,"sub-1032",1,0,"Younger",1
15,"Trustworthy","2",1.63382619991899,12,"sub-1032",1,3,"Younger",1
16,"Trustworthy","3",1.21690890006721,15,"sub-1032",1,6,"Younger",1
17,"Trustworthy","3",1.38364560005721,15,"sub-1032",1,6,"Younger",1
18,"Neutral","1",1.46691730001476,9,"sub-1032",1,0,"Younger",1
19,"Untrustworthy","2",1.11716210003942,6,"sub-1032",1,3,"Younger",1
20,"Trustworthy","2",1.41708629997447,12,"sub-1032",1,3,"Younger",1
21,"Trustworthy","3",1.16746650007553,15,"sub-1032",1,6,"Younger",1
22,"Trustworthy","4",1.11680109996814,18,"sub-1032",1,9,"Younger",1
23,"Untrustworthy","None",NA,9,"sub-1032",1,NA,"Younger",0
24,"Trustworthy","3",1.25003869994543,15,"sub-1032",1,6,"Younger",1
25,"Neutral","2",1.68393590010237,12,"sub-1032",1,3,"Younger",1
26,"Neutral","2",0.933846200001426,12,"sub-1032",1,3,"Younger",1
27,"Untrustworthy","2",1.35037579992786,6,"sub-1032",1,3,"Younger",1
28,"Untrustworthy","1",0.667086299974471,9,"sub-1032",1,0,"Younger",1
29,"Neutral","2",1.06588949996512,6,"sub-1032",1,3,"Younger",1
30,"Neutral","2",1.60080220003147,6,"sub-1032",1,3,"Younger",1
31,"Neutral","1",0.817235499969684,9,"sub-1032",1,0,"Younger",1
32,"Neutral","1",1.40081330004614,9,"sub-1032",1,0,"Younger",1
33,"Neutral","2",1.7671021000715,12,"sub-1032",1,3,"Younger",1
34,"Untrustworthy","1",1.8512056999607,9,"sub-1032",1,0,"Younger",1
35,"Untrustworthy","2",1.40049380005803,6,"sub-1032",1,3,"Younger",1
36,"Neutral","1",1.51718750002328,9,"sub-1032",1,0,"Younger",1
37,"Trustworthy","3",1.86735990003217,15,"sub-1032",1,6,"Younger",1
38,"Untrustworthy","1",0.933703699964099,9,"sub-1032",1,0,"Younger",1
39,"Trustworthy","4",1.25048349995632,18,"sub-1032",1,9,"Younger",1
40,"Trustworthy","4",0.750545399961993,18,"sub-1032",1,9,"Younger",1
41,"Neutral","2",1.61667269992176,6,"sub-1032",1,3,"Younger",1
42,"Untrustworthy","1",0.750248500029556,9,"sub-1032",1,0,"Younger",1
43,"Neutral","1",0.817112199962139,9,"sub-1032",1,0,"Younger",1
44,"Trustworthy","4",0.817450599977747,18,"sub-1032",1,9,"Younger",1
45,"Untrustworthy","1",2.15060210006777,9,"sub-1032",1,0,"Younger",1
1,"Trustworthy","1",3.15646160001052,9,"sub-1033",1,0,"Younger",1
2,"Trustworthy","3",3.51721900000121,15,"sub-1033",1,6,"Younger",1
3,"Trustworthy","2",2.3671932000143,12,"sub-1033",1,3,"Younger",1
4,"Trustworthy","2",3.11740260000806,12,"sub-1033",1,3,"Younger",1
5,"Trustworthy","3",0.98377230000915,15,"sub-1033",1,6,"Younger",1
6,"Neutral","2",3.51665450001019,12,"sub-1033",1,3,"Younger",1
7,"Untrustworthy","2",2.64906290001818,6,"sub-1033",1,3,"Younger",1
8,"Untrustworthy","1",1.21713289999752,9,"sub-1033",1,0,"Younger",1
9,"Trustworthy","2",3.7672109999985,12,"sub-1033",1,3,"Younger",1
10,"Neutral","None",NA,9,"sub-1033",1,NA,"Younger",0
11,"Neutral","3",2.26716810002108,3,"sub-1033",1,6,"Younger",1
12,"Untrustworthy","1",0.966988300002413,9,"sub-1033",1,0,"Younger",1
13,"Untrustworthy","1",1.00040089999675,9,"sub-1033",1,0,"Younger",1
14,"Neutral","2",2.60058540001046,12,"sub-1033",1,3,"Younger",1
15,"Neutral","3",2.05049110000255,15,"sub-1033",1,6,"Younger",1
16,"Neutral","3",1.61704380001174,15,"sub-1033",1,6,"Younger",1
17,"Neutral","2",1.58503330001258,12,"sub-1033",1,3,"Younger",1
18,"Trustworthy","3",1.86728289999883,15,"sub-1033",1,6,"Younger",1
19,"Neutral","3",1.28372629999649,15,"sub-1033",1,6,"Younger",1
20,"Untrustworthy","1",0.867214800004149,9,"sub-1033",1,0,"Younger",1
21,"Trustworthy","3",1.03365009999834,15,"sub-1033",1,6,"Younger",1
22,"Untrustworthy","2",1.96789390000049,6,"sub-1033",1,3,"Younger",1
23,"Neutral","3",1.40032020001672,15,"sub-1033",1,6,"Younger",1
24,"Trustworthy","3",1.71747470000992,15,"sub-1033",1,6,"Younger",1
25,"Neutral","3",1.66731230000732,15,"sub-1033",1,6,"Younger",1
26,"Untrustworthy","1",0.867387500009499,9,"sub-1033",1,0,"Younger",1
27,"Neutral","3",1.55055580000044,3,"sub-1033",1,6,"Younger",1
28,"Trustworthy","4",1.95017130000633,18,"sub-1033",1,9,"Younger",1
29,"Untrustworthy","1",0.818172300001606,9,"sub-1033",1,0,"Younger",1
30,"Trustworthy","4",2.9506613999838,18,"sub-1033",1,9,"Younger",1
31,"Neutral","1",1.2003718999913,9,"sub-1033",1,0,"Younger",1
32,"Untrustworthy","1",0.850461599999107,9,"sub-1033",1,0,"Younger",1
33,"Trustworthy","4",1.06700480001746,18,"sub-1033",1,9,"Younger",1
34,"Untrustworthy","2",1.36734959998284,6,"sub-1033",1,3,"Younger",1
35,"Untrustworthy","1",0.700364899996202,9,"sub-1033",1,0,"Younger",1
36,"Untrustworthy","1",0.984007899998687,9,"sub-1033",1,0,"Younger",1
37,"Trustworthy","4",1.00059939999483,18,"sub-1033",1,9,"Younger",1
38,"Untrustworthy","1",0.800584399985382,9,"sub-1033",1,0,"Younger",1
39,"Trustworthy","4",0.933767200011062,18,"sub-1033",1,9,"Younger",1
40,"Neutral","3",1.90047309998772,15,"sub-1033",1,6,"Younger",1
41,"Trustworthy","4",0.884185699978843,0,"sub-1033",1,9,"Younger",1
42,"Untrustworthy","1",0.933700399997178,9,"sub-1033",1,0,"Younger",1
43,"Neutral","3",1.13376830000198,15,"sub-1033",1,6,"Younger",1
44,"Neutral","3",2.00040190000436,3,"sub-1033",1,6,"Younger",1
45,"Untrustworthy","1",1.11732349998783,9,"sub-1033",1,0,"Younger",1
1,"Neutral","2",2.17219299997669,12,"sub-1034",1,3,"Younger",1
2,"Untrustworthy","2",2.36280760006048,6,"sub-1034",1,3,"Younger",1
3,"Untrustworthy","2",2.66717709996738,6,"sub-1034",1,3,"Younger",1
4,"Trustworthy","3",3.28064290003385,15,"sub-1034",1,6,"Younger",1
5,"Untrustworthy","1",1.41759150009602,9,"sub-1034",1,0,"Younger",1
6,"Trustworthy","3",1.86729429999832,15,"sub-1034",1,6,"Younger",1
7,"Trustworthy","3",2.15043409995269,15,"sub-1034",1,6,"Younger",1
8,"Trustworthy","4",1.20053699996788,0,"sub-1034",1,9,"Younger",1
9,"Trustworthy","2",1.91722510010004,12,"sub-1034",1,3,"Younger",1
10,"Neutral","2",2.33398480003234,12,"sub-1034",1,3,"Younger",1
11,"Neutral","3",1.4169952000957,3,"sub-1034",1,6,"Younger",1
12,"Untrustworthy","2",2.2172569000395,6,"sub-1034",1,3,"Younger",1
13,"Neutral","2",1.31785569991916,6,"sub-1034",1,3,"Younger",1
14,"Neutral","1",1.08407710003667,9,"sub-1034",1,0,"Younger",1
15,"Neutral","1",1.31740579998586,9,"sub-1034",1,0,"Younger",1
16,"Untrustworthy","2",2.88376829994377,6,"sub-1034",1,3,"Younger",1
17,"Trustworthy","3",1.61696150002535,15,"sub-1034",1,6,"Younger",1
18,"Neutral","1",1.36737649992574,9,"sub-1034",1,0,"Younger",1
19,"Untrustworthy","1",1.18380460003391,9,"sub-1034",1,0,"Younger",1
20,"Untrustworthy","1",1.46733930008486,9,"sub-1034",1,0,"Younger",1
21,"Trustworthy","4",0.967035099980421,18,"sub-1034",1,9,"Younger",1
22,"Trustworthy","4",1.71736320003401,18,"sub-1034",1,9,"Younger",1
23,"Untrustworthy","2",2.93384760001209,6,"sub-1034",1,3,"Younger",1
24,"Neutral","1",1.68385999999009,9,"sub-1034",1,0,"Younger",1
25,"Trustworthy","4",1.11699399992358,18,"sub-1034",1,9,"Younger",1
26,"Trustworthy","4",1.58386799995787,18,"sub-1034",1,9,"Younger",1
27,"Trustworthy","4",1.50058659992646,18,"sub-1034",1,9,"Younger",1
28,"Neutral","1",1.66725629998837,9,"sub-1034",1,0,"Younger",1
29,"Neutral","2",2.5171480999561,6,"sub-1034",1,3,"Younger",1
30,"Trustworthy","4",1.08364880003501,18,"sub-1034",1,9,"Younger",1
31,"Trustworthy","4",0.967142799985595,18,"sub-1034",1,9,"Younger",1
32,"Untrustworthy","1",1.53376420005225,9,"sub-1034",1,0,"Younger",1
33,"Untrustworthy","1",1.20049019996077,9,"sub-1034",1,0,"Younger",1
34,"Neutral","1",1.65016550000291,9,"sub-1034",1,0,"Younger",1
35,"Neutral","2",2.06701140000951,12,"sub-1034",1,3,"Younger",1
36,"Untrustworthy","2",1.33353030006401,6,"sub-1034",1,3,"Younger",1
37,"Neutral","2",1.30039780004881,12,"sub-1034",1,3,"Younger",1
38,"Trustworthy","4",0.983858800027519,18,"sub-1034",1,9,"Younger",1
39,"Trustworthy","4",1.0503686000593,18,"sub-1034",1,9,"Younger",1
40,"Untrustworthy","1",2.11721969989594,9,"sub-1034",1,0,"Younger",1
41,"Untrustworthy","1",1.06717409996781,9,"sub-1034",1,0,"Younger",1
42,"Untrustworthy","1",1.21774380002171,9,"sub-1034",1,0,"Younger",1
43,"Neutral","3",1.66861870000139,15,"sub-1034",1,6,"Younger",1
44,"Untrustworthy","1",1.50069199991412,9,"sub-1034",1,0,"Younger",1
45,"Neutral","3",1.21712759998627,15,"sub-1034",1,6,"Younger",1
1,"Untrustworthy","2",1.95583630001056,6,"sub-1035",1,3,"Younger",1
2,"Untrustworthy","None",NA,9,"sub-1035",1,NA,"Younger",0
3,"Untrustworthy","2",1.23373360000551,6,"sub-1035",1,3,"Younger",1
4,"Trustworthy","3",1.91399000000092,15,"sub-1035",1,6,"Younger",1
5,"Neutral","3",2.57902839999588,15,"sub-1035",1,6,"Younger",1
6,"Trustworthy","4",1.48366620000161,18,"sub-1035",1,9,"Younger",1
7,"Neutral","4",1.30033340000955,18,"sub-1035",1,9,"Younger",1
8,"Untrustworthy","1",1.73384120000992,9,"sub-1035",1,0,"Younger",1
9,"Neutral","4",1.08383150000009,18,"sub-1035",1,9,"Younger",1
10,"Neutral","4",1.0335242000001,18,"sub-1035",1,9,"Younger",1
11,"Trustworthy","4",1.81725520000327,18,"sub-1035",1,9,"Younger",1
12,"Neutral","4",0.950696699990658,0,"sub-1035",1,9,"Younger",1
13,"Trustworthy","3",1.10076989998925,15,"sub-1035",1,6,"Younger",1
14,"Neutral","2",1.55052460001025,12,"sub-1035",1,3,"Younger",1
15,"Neutral","3",1.11700990000099,15,"sub-1035",1,6,"Younger",1
16,"Trustworthy","1",0.983716400005505,9,"sub-1035",1,0,"Younger",1
17,"Neutral","4",1.40043930000684,18,"sub-1035",1,9,"Younger",1
18,"Neutral","3",0.934740699987742,15,"sub-1035",1,6,"Younger",1
19,"Neutral","3",1.61707930000557,15,"sub-1035",1,6,"Younger",1
20,"Untrustworthy","2",2.00058790000912,6,"sub-1035",1,3,"Younger",1
21,"Neutral","4",1.13375039999664,18,"sub-1035",1,9,"Younger",1
22,"Trustworthy","4",1.58335729999817,18,"sub-1035",1,9,"Younger",1
23,"Neutral","3",1.73385220000637,15,"sub-1035",1,6,"Younger",1
24,"Untrustworthy","1",1.16731900000013,9,"sub-1035",1,0,"Younger",1
25,"Trustworthy","3",1.4839556000079,15,"sub-1035",1,6,"Younger",1
26,"Untrustworthy","1",0.917072700001881,9,"sub-1035",1,0,"Younger",1
27,"Untrustworthy","2",1.76727120000578,6,"sub-1035",1,3,"Younger",1
28,"Untrustworthy","1",1.2339731999964,9,"sub-1035",1,0,"Younger",1
29,"Untrustworthy","1",0.767383899990818,9,"sub-1035",1,0,"Younger",1
30,"Untrustworthy","2",1.5506435999996,6,"sub-1035",1,3,"Younger",1
31,"Trustworthy","3",1.1004302999936,15,"sub-1035",1,6,"Younger",1
32,"Trustworthy","4",1.15041940000083,18,"sub-1035",1,9,"Younger",1
33,"Untrustworthy","1",1.03365949999716,9,"sub-1035",1,0,"Younger",1
34,"Trustworthy","4",1.30056760000298,18,"sub-1035",1,9,"Younger",1
35,"Trustworthy","4",0.983794999992824,18,"sub-1035",1,9,"Younger",1
36,"Trustworthy","4",1.01708950000466,18,"sub-1035",1,9,"Younger",1
37,"Trustworthy","4",0.883979099991848,18,"sub-1035",1,9,"Younger",1
38,"Neutral","4",1.45044390000112,18,"sub-1035",1,9,"Younger",1
39,"Untrustworthy","1",0.817362799993134,9,"sub-1035",1,0,"Younger",1
40,"Untrustworthy","2",1.6835873999953,6,"sub-1035",1,3,"Younger",1
41,"Trustworthy","4",0.917553399995086,0,"sub-1035",1,9,"Younger",1
42,"Neutral","3",1.28350590000628,15,"sub-1035",1,6,"Younger",1
43,"Untrustworthy","3",2.00058229999559,3,"sub-1035",1,6,"Younger",1
44,"Trustworthy","3",1.4507780999993,15,"sub-1035",1,6,"Younger",1
45,"Neutral","4",1.03412140000728,18,"sub-1035",1,9,"Younger",1
1,"Untrustworthy","4",2.19359360000817,0,"sub-1036",1,9,"Younger",1
2,"Neutral","4",0.565559599985136,18,"sub-1036",1,9,"Younger",1
3,"Neutral","4",0.500512800004799,18,"sub-1036",1,9,"Younger",1
4,"Untrustworthy","4",0.984287900006166,0,"sub-1036",1,9,"Younger",1
5,"Neutral","4",1.43398400000297,18,"sub-1036",1,9,"Younger",1
6,"Trustworthy","4",0.876909500017064,18,"sub-1036",1,9,"Younger",1
7,"Trustworthy","4",0.600464199989801,18,"sub-1036",1,9,"Younger",1
8,"Trustworthy","4",0.65062480000779,0,"sub-1036",1,9,"Younger",1
9,"Untrustworthy","4",2.00027280001086,0,"sub-1036",1,9,"Younger",1
10,"Untrustworthy","3",1.78378589998465,3,"sub-1036",1,6,"Younger",1
11,"Untrustworthy","1",0.767254100006539,9,"sub-1036",1,0,"Younger",1
12,"Trustworthy","4",0.750389299995732,18,"sub-1036",1,9,"Younger",1
13,"Neutral","4",0.617090899992036,0,"sub-1036",1,9,"Younger",1
14,"Untrustworthy","1",0.850469000026351,9,"sub-1036",1,0,"Younger",1
15,"Neutral","4",0.800387299997965,18,"sub-1036",1,9,"Younger",1
16,"Untrustworthy","1",0.817206399980932,9,"sub-1036",1,0,"Younger",1
17,"Neutral","4",0.7505158999993,18,"sub-1036",1,9,"Younger",1
18,"Trustworthy","4",0.883617200015578,18,"sub-1036",1,9,"Younger",1
19,"Untrustworthy","1",0.784765299991705,9,"sub-1036",1,0,"Younger",1
20,"Neutral","4",0.683893000008538,18,"sub-1036",1,9,"Younger",1
21,"Trustworthy","4",0.450304199999664,18,"sub-1036",1,9,"Younger",1
22,"Untrustworthy","2",0.550465200009057,6,"sub-1036",1,3,"Younger",1
23,"Neutral","4",2.40068449999671,18,"sub-1036",1,9,"Younger",1
24,"Trustworthy","4",0.717177199985599,18,"sub-1036",1,9,"Younger",1
25,"Untrustworthy","4",0.817050099984044,0,"sub-1036",1,9,"Younger",1
26,"Trustworthy","4",0.700415900006192,18,"sub-1036",1,9,"Younger",1
27,"Untrustworthy","2",1.23386549999123,6,"sub-1036",1,3,"Younger",1
28,"Neutral","4",0.583858099998906,0,"sub-1036",1,9,"Younger",1
29,"Neutral","4",0.800595599983353,0,"sub-1036",1,9,"Younger",1
30,"Trustworthy","4",1.01710860000458,18,"sub-1036",1,9,"Younger",1
31,"Neutral","2",1.06742780000786,12,"sub-1036",1,3,"Younger",1
32,"Trustworthy","4",0.833959099982167,18,"sub-1036",1,9,"Younger",1
33,"Trustworthy","4",0.783853100001579,18,"sub-1036",1,9,"Younger",1
34,"Untrustworthy","1",0.983917400008067,9,"sub-1036",1,0,"Younger",1
35,"Trustworthy","4",0.934136700001545,18,"sub-1036",1,9,"Younger",1
36,"Untrustworthy","1",0.817218000011053,9,"sub-1036",1,0,"Younger",1
37,"Untrustworthy","1",0.76730779997888,9,"sub-1036",1,0,"Younger",1
38,"Neutral","3",1.35048779999488,15,"sub-1036",1,6,"Younger",1
39,"Trustworthy","4",1.88399259999278,18,"sub-1036",1,9,"Younger",1
40,"Neutral","4",0.6172659000149,18,"sub-1036",1,9,"Younger",1
41,"Trustworthy","4",0.71716280002147,0,"sub-1036",1,9,"Younger",1
42,"Untrustworthy","2",1.55108539998764,6,"sub-1036",1,3,"Younger",1
43,"Trustworthy","2",2.4169190999819,12,"sub-1036",1,3,"Younger",1
44,"Neutral","4",1.41700869999477,0,"sub-1036",1,9,"Younger",1
45,"Neutral","4",0.833810799987987,18,"sub-1036",1,9,"Younger",1
1,"Trustworthy","3",2.31496730004437,15,"sub-1037",1,6,"Younger",1
2,"Trustworthy","4",2.68366260000039,18,"sub-1037",1,9,"Younger",1
3,"Untrustworthy","3",1.74741319997702,3,"sub-1037",1,6,"Younger",1
4,"Untrustworthy","None",NA,9,"sub-1037",1,NA,"Younger",0
5,"Trustworthy","None",NA,9,"sub-1037",1,NA,"Younger",0
6,"Untrustworthy","2",0.650384200038388,6,"sub-1037",1,3,"Younger",1
7,"Trustworthy","1",0.900531799998134,9,"sub-1037",1,0,"Younger",1
8,"Untrustworthy","3",1.11715249996632,15,"sub-1037",1,6,"Younger",1
9,"Trustworthy","2",1.11733069992624,12,"sub-1037",1,3,"Younger",1
10,"Neutral","4",0.716495999949984,18,"sub-1037",1,9,"Younger",1
11,"Neutral","4",0.767264799913391,0,"sub-1037",1,9,"Younger",1
12,"Trustworthy","2",1.03352619998623,12,"sub-1037",1,3,"Younger",1
13,"Neutral","3",0.650436899974011,3,"sub-1037",1,6,"Younger",1
14,"Trustworthy","3",0.816951900022104,15,"sub-1037",1,6,"Younger",1
15,"Neutral","1",1.10035979992244,9,"sub-1037",1,0,"Younger",1
16,"Neutral","1",0.933720799977891,9,"sub-1037",1,0,"Younger",1
17,"Neutral","1",0.834147899993695,9,"sub-1037",1,0,"Younger",1
18,"Untrustworthy","4",0.766908499994315,0,"sub-1037",1,9,"Younger",1
19,"Trustworthy","3",1.08132200001273,15,"sub-1037",1,6,"Younger",1
20,"Neutral","3",1.00040829996578,15,"sub-1037",1,6,"Younger",1
21,"Trustworthy","4",1.03380330000073,18,"sub-1037",1,9,"Younger",1
22,"Neutral","4",1.36705689993687,0,"sub-1037",1,9,"Younger",1
23,"Trustworthy","4",1.06684510002378,18,"sub-1037",1,9,"Younger",1
24,"Untrustworthy","4",1.23376760003157,0,"sub-1037",1,9,"Younger",1
25,"Untrustworthy","1",1.05066600011196,9,"sub-1037",1,0,"Younger",1
26,"Untrustworthy","2",1.3005154998973,6,"sub-1037",1,3,"Younger",1
27,"Neutral","4",0.850453200051561,0,"sub-1037",1,9,"Younger",1
28,"Neutral","1",0.816996799898334,9,"sub-1037",1,0,"Younger",1
29,"Neutral","1",0.650576799991541,9,"sub-1037",1,0,"Younger",1
30,"Untrustworthy","1",1.10503059998155,9,"sub-1037",1,0,"Younger",1
31,"Neutral","2",1.23345430009067,12,"sub-1037",1,3,"Younger",1
32,"Untrustworthy","2",0.977917699958198,6,"sub-1037",1,3,"Younger",1
33,"Untrustworthy","1",1.08384479989763,9,"sub-1037",1,0,"Younger",1
34,"Trustworthy","4",0.912974199978635,18,"sub-1037",1,9,"Younger",1
35,"Trustworthy","4",0.900291499914601,18,"sub-1037",1,9,"Younger",1
36,"Trustworthy","4",0.617147700046189,18,"sub-1037",1,9,"Younger",1
37,"Trustworthy","4",0.734603799995966,18,"sub-1037",1,9,"Younger",1
38,"Neutral","1",0.874813800095581,9,"sub-1037",1,0,"Younger",1
39,"Neutral","3",0.717047999962233,3,"sub-1037",1,6,"Younger",1
40,"Untrustworthy","3",1.36247960000765,3,"sub-1037",1,6,"Younger",1
41,"Neutral","1",0.750439800089225,9,"sub-1037",1,0,"Younger",1
42,"Untrustworthy","1",0.694177799974568,9,"sub-1037",1,0,"Younger",1
43,"Trustworthy","4",0.75012679991778,18,"sub-1037",1,9,"Younger",1
44,"Untrustworthy","1",0.766959100030363,9,"sub-1037",1,0,"Younger",1
45,"Untrustworthy","1",1.46724819997326,9,"sub-1037",1,0,"Younger",1
1,"Trustworthy","2",1.12437410000712,12,"sub-1038",1,3,"Younger",1
2,"Trustworthy","2",1.65056430001277,12,"sub-1038",1,3,"Younger",1
3,"Neutral","2",1.46630230010487,12,"sub-1038",1,3,"Younger",1
4,"Untrustworthy","1",1.09715059993323,9,"sub-1038",1,0,"Younger",1
5,"Trustworthy","2",1.33317370002624,12,"sub-1038",1,3,"Younger",1
6,"Neutral","1",1.68344759999309,9,"sub-1038",1,0,"Younger",1
7,"Untrustworthy","1",1.36697259999346,9,"sub-1038",1,0,"Younger",1
8,"Neutral","2",1.8279016999295,6,"sub-1038",1,3,"Younger",1
9,"Neutral","1",2.51692240010016,9,"sub-1038",1,0,"Younger",1
10,"Trustworthy","2",1.95046899991576,12,"sub-1038",1,3,"Younger",1
11,"Neutral","3",1.15024580003228,3,"sub-1038",1,6,"Younger",1
12,"Trustworthy","3",1.55074380000588,15,"sub-1038",1,6,"Younger",1
13,"Trustworthy","4",1.45044060004875,18,"sub-1038",1,9,"Younger",1
14,"Trustworthy","4",1.10034220002126,18,"sub-1038",1,9,"Younger",1
15,"Neutral","1",0.897400399902835,9,"sub-1038",1,0,"Younger",1
16,"Trustworthy","4",1.08402990002651,18,"sub-1038",1,9,"Younger",1
17,"Untrustworthy","2",2.06740950001404,6,"sub-1038",1,3,"Younger",1
18,"Neutral","1",1.25070590001997,9,"sub-1038",1,0,"Younger",1
19,"Untrustworthy","1",1.71778900001664,9,"sub-1038",1,0,"Younger",1
20,"Untrustworthy","1",0.75041560002137,9,"sub-1038",1,0,"Younger",1
21,"Trustworthy","4",0.800501800025813,18,"sub-1038",1,9,"Younger",1
22,"Neutral","1",0.800491100060754,9,"sub-1038",1,0,"Younger",1
23,"Untrustworthy","1",1.31349939992651,9,"sub-1038",1,0,"Younger",1
24,"Untrustworthy","1",0.750327600049786,9,"sub-1038",1,0,"Younger",1
25,"Trustworthy","4",1.06688339996617,18,"sub-1038",1,9,"Younger",1
26,"Trustworthy","4",1.01748149993364,18,"sub-1038",1,9,"Younger",1
27,"Untrustworthy","1",0.885165699990466,9,"sub-1038",1,0,"Younger",1
28,"Neutral","1",1.23385479999706,9,"sub-1038",1,0,"Younger",1
29,"Untrustworthy","1",0.86709559999872,9,"sub-1038",1,0,"Younger",1
30,"Untrustworthy","1",0.816670699976385,9,"sub-1038",1,0,"Younger",1
31,"Untrustworthy","1",0.967190800001845,9,"sub-1038",1,0,"Younger",1
32,"Neutral","1",0.833496400038712,9,"sub-1038",1,0,"Younger",1
33,"Untrustworthy","1",0.833671399974264,9,"sub-1038",1,0,"Younger",1
34,"Untrustworthy","1",1.23384360002819,9,"sub-1038",1,0,"Younger",1
35,"Trustworthy","4",1.20021039992571,18,"sub-1038",1,9,"Younger",1
36,"Neutral","1",0.649926100042649,9,"sub-1038",1,0,"Younger",1
37,"Trustworthy","4",0.83372709993273,18,"sub-1038",1,9,"Younger",1
38,"Neutral","1",0.867179700057022,9,"sub-1038",1,0,"Younger",1
39,"Trustworthy","4",1.01698840002064,18,"sub-1038",1,9,"Younger",1
40,"Untrustworthy","1",0.767001100000925,9,"sub-1038",1,0,"Younger",1
41,"Untrustworthy","1",1.13424350006972,9,"sub-1038",1,0,"Younger",1
42,"Neutral","1",0.783238599891774,9,"sub-1038",1,0,"Younger",1
43,"Neutral","1",0.667184600024484,9,"sub-1038",1,0,"Younger",1
44,"Neutral","1",1.58363989996724,9,"sub-1038",1,0,"Younger",1
45,"Trustworthy","4",0.850724400021136,18,"sub-1038",1,9,"Younger",1
1,"Untrustworthy","None",NA,9,"sub-1039",1,NA,"Younger",0
2,"Neutral","1",1.48042739997618,9,"sub-1039",1,0,"Younger",1
3,"Trustworthy","2",2.22804840002209,12,"sub-1039",1,3,"Younger",1
4,"Neutral","None",NA,9,"sub-1039",1,NA,"Younger",0
5,"Untrustworthy","2",2.11722830007784,6,"sub-1039",1,3,"Younger",1
6,"Trustworthy","4",1.91737600020133,18,"sub-1039",1,9,"Younger",1
7,"Trustworthy","4",1.61713729985058,18,"sub-1039",1,9,"Younger",1
8,"Neutral","3",2.03402539994568,3,"sub-1039",1,6,"Younger",1
9,"Untrustworthy","1",1.88490430009551,9,"sub-1039",1,0,"Younger",1
10,"Neutral","4",3.56742239999585,18,"sub-1039",1,9,"Younger",1
11,"Neutral","4",1.60083420015872,0,"sub-1039",1,9,"Younger",1
12,"Trustworthy","4",2.5170326998923,18,"sub-1039",1,9,"Younger",1
13,"Trustworthy","4",1.01684909989126,18,"sub-1039",1,9,"Younger",1
14,"Trustworthy","4",1.55051079997793,18,"sub-1039",1,9,"Younger",1
15,"Neutral","1",2.60045640007593,9,"sub-1039",1,0,"Younger",1
16,"Trustworthy","4",1.16715029999614,18,"sub-1039",1,9,"Younger",1
17,"Trustworthy","4",0.950377400033176,18,"sub-1039",1,9,"Younger",1
18,"Neutral","1",1.86738690012135,9,"sub-1039",1,0,"Younger",1
19,"Neutral","2",2.20037920004688,12,"sub-1039",1,3,"Younger",1
20,"Untrustworthy","1",1.58381019998342,9,"sub-1039",1,0,"Younger",1
21,"Neutral","3",1.43441669992171,15,"sub-1039",1,6,"Younger",1
22,"Untrustworthy","2",2.23371939989738,6,"sub-1039",1,3,"Younger",1
23,"Untrustworthy","1",3.66723749996163,9,"sub-1039",1,0,"Younger",1
24,"Neutral","3",1.31824639998376,15,"sub-1039",1,6,"Younger",1
25,"Untrustworthy","1",1.61875090003014,9,"sub-1039",1,0,"Younger",1
26,"Trustworthy","4",1.98347319988534,18,"sub-1039",1,9,"Younger",1
27,"Neutral","4",1.1670935000293,0,"sub-1039",1,9,"Younger",1
28,"Trustworthy","4",1.05046920012683,18,"sub-1039",1,9,"Younger",1
29,"Neutral","3",0.950284699909389,3,"sub-1039",1,6,"Younger",1
30,"Untrustworthy","2",1.53367609996349,6,"sub-1039",1,3,"Younger",1
31,"Untrustworthy","1",0.93392560002394,9,"sub-1039",1,0,"Younger",1
32,"Untrustworthy","1",1.11742540006526,9,"sub-1039",1,0,"Younger",1
33,"Untrustworthy","1",2.21691980003379,9,"sub-1039",1,0,"Younger",1
34,"Untrustworthy","1",1.58384159998968,9,"sub-1039",1,0,"Younger",1
35,"Trustworthy","4",1.1007932999637,18,"sub-1039",1,9,"Younger",1
36,"Trustworthy","4",0.850497800158337,18,"sub-1039",1,9,"Younger",1
37,"Neutral","2",1.45051620015875,12,"sub-1039",1,3,"Younger",1
38,"Untrustworthy","1",1.13400670001283,9,"sub-1039",1,0,"Younger",1
39,"Neutral","2",1.38395129982382,6,"sub-1039",1,3,"Younger",1
40,"Trustworthy","4",1.2337503999006,18,"sub-1039",1,9,"Younger",1
41,"Trustworthy","4",0.933665399905294,0,"sub-1039",1,9,"Younger",1
42,"Untrustworthy","1",1.73398469993845,9,"sub-1039",1,0,"Younger",1
43,"Neutral","2",1.65033419989049,12,"sub-1039",1,3,"Younger",1
44,"Untrustworthy","1",0.984551300061867,9,"sub-1039",1,0,"Younger",1
45,"Trustworthy","4",0.967216999968514,18,"sub-1039",1,9,"Younger",1
1,"Neutral","None",NA,9,"sub-2001",2,NA,"Older",0
2,"Trustworthy","3",2.79877090000082,15,"sub-2001",2,6,"Older",1
3,"Neutral","3",2.78404509997927,15,"sub-2001",2,6,"Older",1
4,"Neutral","3",3.5504383998923,15,"sub-2001",2,6,"Older",1
5,"Neutral","3",2.63365610002074,15,"sub-2001",2,6,"Older",1
6,"Untrustworthy","3",3.76301170000806,3,"sub-2001",2,6,"Older",1
7,"Untrustworthy","1",2.51714690006338,9,"sub-2001",2,0,"Older",1
8,"Trustworthy","3",2.66730169998482,3,"sub-2001",2,6,"Older",1
9,"Trustworthy","1",2.11732269998174,9,"sub-2001",2,0,"Older",1
10,"Untrustworthy","1",2.58373429998755,9,"sub-2001",2,0,"Older",1
11,"Trustworthy","1",3.00036580010783,9,"sub-2001",2,0,"Older",1
12,"Untrustworthy","1",2.10054440004751,9,"sub-2001",2,0,"Older",1
13,"Untrustworthy","None",NA,9,"sub-2001",2,NA,"Older",0
14,"Neutral","1",2.31717060005758,9,"sub-2001",2,0,"Older",1
15,"Trustworthy","1",3.83372029999737,9,"sub-2001",2,0,"Older",1
16,"Untrustworthy","1",1.36707100004423,9,"sub-2001",2,0,"Older",1
17,"Trustworthy","3",2.01729650003836,15,"sub-2001",2,6,"Older",1
18,"Trustworthy","3",2.93429140001535,15,"sub-2001",2,6,"Older",1
19,"Untrustworthy","1",1.66737369995099,9,"sub-2001",2,0,"Older",1
20,"Neutral","3",2.1173011000501,15,"sub-2001",2,6,"Older",1
