"onset"	"duration"	"event"	"trial_type"	"response_time"	"response_key"	"stim_file"	"trial_earnings"
0.00806116696912795	1.23188399209175	"Decision"	"Trustworthy"	1.23188399209175	"4"	"images/A1f01.jpg"	18
1.25027562701143	4.76811600790825	"Response"	"Trustworthy"	1.23188399209175	"4"	"images/A1f01.jpg"	18
6.01649438787717	2	"Thinking"	"Trustworthy"	1.23188399209175	"4"	"images/A1f01.jpg"	18
8.0189787291456	2	"Feedback"	"Trustworthy"	1.23188399209175	"4"	"images/A1f01.jpg"	18
14.0241340076318	0.93291538907215	"Decision"	"Untrustworthy"	0.93291538907215	"1"	"images/B1f01.jpg"	9
14.9672211444704	9.06708461092785	"Response"	"Untrustworthy"	0.93291538907215	"1"	"images/B1f01.jpg"	9
24.033651532256	2	"Thinking"	"Untrustworthy"	0.93291538907215	"1"	"images/B1f01.jpg"	9
24.0465078705456	2	"Feedback"	"Untrustworthy"	0.93291538907215	"1"	"images/B1f01.jpg"	9
28.0527878439752	1.81709001539275	"Decision"	"Neutral"	1.81709001539275	"2"	"images/C1f01.jpg"	12
29.8842884042533	4.18290998460725	"Response"	"Neutral"	1.81709001539275	"2"	"images/C1f01.jpg"	12
34.066759774927	2	"Thinking"	"Neutral"	1.81709001539275	"2"	"images/C1f01.jpg"	12
36.0700599040138	2	"Feedback"	"Neutral"	1.81709001539275	"2"	"images/C1f01.jpg"	12
44.0704683668446	2.60030378715601	"Decision"	"Neutral"	2.60030378715601	"4"	"images/C1f01.jpg"	18
46.6847065382171	3.39969621284399	"Response"	"Neutral"	2.60030378715601	"4"	"images/C1f01.jpg"	18
50.0841928308364	2	"Thinking"	"Neutral"	2.60030378715601	"4"	"images/C1f01.jpg"	18
52.0867915189592	2	"Feedback"	"Neutral"	2.60030378715601	"4"	"images/C1f01.jpg"	18
62.087468497688	1.16701691318303	"Decision"	"Trustworthy"	1.16701691318303	"4"	"images/A1f01.jpg"	18
63.2687008265639	4.83298308681697	"Response"	"Trustworthy"	1.16701691318303	"4"	"images/A1f01.jpg"	18
68.1013499752153	2	"Thinking"	"Trustworthy"	1.16701691318303	"4"	"images/A1f01.jpg"	18
70.1040613035439	2	"Feedback"	"Trustworthy"	1.16701691318303	"4"	"images/A1f01.jpg"	18
76.1050949761411	0.833487123134546	"Decision"	"Untrustworthy"	0.833487123134546	"1"	"images/B1f01.jpg"	9
76.9523333010729	9.16651287686545	"Response"	"Untrustworthy"	0.833487123134546	"1"	"images/B1f01.jpg"	9
86.118711919873	2	"Thinking"	"Untrustworthy"	0.833487123134546	"1"	"images/B1f01.jpg"	9
86.1340776307043	2	"Feedback"	"Untrustworthy"	0.833487123134546	"1"	"images/B1f01.jpg"	9
92.1382276810473	1.60033905832097	"Decision"	"Neutral"	1.60033905832097	"1"	"images/C1f01.jpg"	9
93.7526746349176	8.39966094167903	"Response"	"Neutral"	1.60033905832097	"1"	"images/C1f01.jpg"	9
102.15220871428	2	"Thinking"	"Neutral"	1.60033905832097	"1"	"images/C1f01.jpg"	9
102.161787110032	2	"Feedback"	"Neutral"	1.60033905832097	"1"	"images/C1f01.jpg"	9
108.172343427315	1.70065080979839	"Decision"	"Untrustworthy"	1.70065080979839	"1"	"images/B1f01.jpg"	9
109.886770470068	8.29934919020161	"Response"	"Untrustworthy"	1.70065080979839	"1"	"images/B1f01.jpg"	9
118.186221491545	2	"Thinking"	"Untrustworthy"	1.70065080979839	"1"	"images/B1f01.jpg"	9
118.197117435862	2	"Feedback"	"Untrustworthy"	1.70065080979839	"1"	"images/B1f01.jpg"	9
122.206217395491	1.75066019641235	"Decision"	"Neutral"	1.75066019641235	"4"	"images/C1f01.jpg"	18
123.970518998103	4.24933980358765	"Response"	"Neutral"	1.75066019641235	"4"	"images/C1f01.jpg"	18
128.220152348629	2	"Thinking"	"Neutral"	1.75066019641235	"4"	"images/C1f01.jpg"	18
130.222810770152	2	"Feedback"	"Neutral"	1.75066019641235	"4"	"images/C1f01.jpg"	18
142.227884128573	0.899636479560286	"Decision"	"Untrustworthy"	0.899636479560286	"1"	"images/B1f01.jpg"	9
143.137833440444	9.10036352043971	"Response"	"Untrustworthy"	0.899636479560286	"1"	"images/B1f01.jpg"	9
152.237223590724	2	"Thinking"	"Untrustworthy"	0.899636479560286	"1"	"images/B1f01.jpg"	9
152.250656783115	2	"Feedback"	"Untrustworthy"	0.899636479560286	"1"	"images/B1f01.jpg"	9
156.257132454542	0.850457102875225	"Decision"	"Untrustworthy"	0.850457102875225	"1"	"images/B1f01.jpg"	9
157.121371479239	9.14954289712477	"Response"	"Untrustworthy"	0.850457102875225	"1"	"images/B1f01.jpg"	9
166.271008812124	2	"Thinking"	"Untrustworthy"	0.850457102875225	"1"	"images/B1f01.jpg"	9
166.280549661256	2	"Feedback"	"Untrustworthy"	0.850457102875225	"1"	"images/B1f01.jpg"	9
170.29094953381	1.13369192345999	"Decision"	"Untrustworthy"	1.13369192345999	"1"	"images/B1f01.jpg"	9
171.438496196992	8.86630807654001	"Response"	"Untrustworthy"	1.13369192345999	"1"	"images/B1f01.jpg"	9
180.30498062924	2	"Thinking"	"Untrustworthy"	1.13369192345999	"1"	"images/B1f01.jpg"	9
180.310908459942	2	"Feedback"	"Untrustworthy"	1.13369192345999	"1"	"images/B1f01.jpg"	9
184.307610037504	0.866990744136274	"Decision"	"Trustworthy"	0.866990744136274	"4"	"images/A1f01.jpg"	18
185.188922579749	5.13300925586373	"Response"	"Trustworthy"	0.866990744136274	"4"	"images/A1f01.jpg"	18
190.321832848829	2	"Thinking"	"Trustworthy"	0.866990744136274	"4"	"images/A1f01.jpg"	18
192.324234132189	2	"Feedback"	"Trustworthy"	0.866990744136274	"4"	"images/A1f01.jpg"	18
198.325802561129	2.26736678020097	"Decision"	"Trustworthy"	2.26736678020097	"4"	"images/A1f01.jpg"	18
200.606073466362	3.73263321979903	"Response"	"Trustworthy"	2.26736678020097	"4"	"images/A1f01.jpg"	18
204.33871692617	2	"Thinking"	"Trustworthy"	2.26736678020097	"4"	"images/A1f01.jpg"	18
206.341220040806	2	"Feedback"	"Trustworthy"	2.26736678020097	"4"	"images/A1f01.jpg"	18
214.342099544359	1.83363901672419	"Decision"	"Trustworthy"	1.83363901672419	"1"	"images/A1f01.jpg"	9
216.189673514222	8.16636098327581	"Response"	"Trustworthy"	1.83363901672419	"1"	"images/A1f01.jpg"	9
224.356080577476	2	"Thinking"	"Trustworthy"	1.83363901672419	"1"	"images/A1f01.jpg"	9
224.371845648857	2	"Feedback"	"Trustworthy"	1.83363901672419	"1"	"images/A1f01.jpg"	9
234.376107770484	0.933327265200205	"Decision"	"Neutral"	0.933327265200205	"1"	"images/C1f01.jpg"	9
235.323404691066	9.06667273479979	"Response"	"Neutral"	0.933327265200205	"1"	"images/C1f01.jpg"	9
244.390079701436	2	"Thinking"	"Neutral"	0.933327265200205	"1"	"images/C1f01.jpg"	9
244.403719969676	2	"Feedback"	"Neutral"	0.933327265200205	"1"	"images/C1f01.jpg"	9
248.409399764496	0.667246744618751	"Decision"	"Untrustworthy"	0.667246744618751	"1"	"images/B1f01.jpg"	9
249.090977978311	9.33275325538125	"Response"	"Untrustworthy"	0.667246744618751	"1"	"images/B1f01.jpg"	9
258.423376246588	2	"Thinking"	"Untrustworthy"	0.667246744618751	"1"	"images/B1f01.jpg"	9
258.440088519244	2	"Feedback"	"Untrustworthy"	0.667246744618751	"1"	"images/B1f01.jpg"	9
264.443881875719	0.867550531635061	"Decision"	"Untrustworthy"	0.867550531635061	"1"	"images/B1f01.jpg"	9
265.324698346201	9.13244946836494	"Response"	"Untrustworthy"	0.867550531635061	"1"	"images/B1f01.jpg"	9
274.457452739473	2	"Thinking"	"Untrustworthy"	0.867550531635061	"1"	"images/B1f01.jpg"	9
274.470782962861	2	"Feedback"	"Untrustworthy"	0.867550531635061	"1"	"images/B1f01.jpg"	9
278.477219380904	1.06705559766851	"Decision"	"Trustworthy"	1.06705559766851	"4"	"images/A1f01.jpg"	18
279.5584420386	4.93294440233149	"Response"	"Trustworthy"	1.06705559766851	"4"	"images/A1f01.jpg"	18
284.491001871647	2	"Thinking"	"Trustworthy"	1.06705559766851	"4"	"images/A1f01.jpg"	18
286.494040311547	2	"Feedback"	"Trustworthy"	1.06705559766851	"4"	"images/A1f01.jpg"	18
292.494334996329	0.783571034437045	"Decision"	"Neutral"	0.783571034437045	"1"	"images/C1f01.jpg"	9
293.292046922026	9.21642896556295	"Response"	"Neutral"	0.783571034437045	"1"	"images/C1f01.jpg"	9
302.508369505173	2	"Thinking"	"Neutral"	0.783571034437045	"1"	"images/C1f01.jpg"	9
302.520504491404	2	"Feedback"	"Neutral"	0.783571034437045	"1"	"images/C1f01.jpg"	9
306.528170848964	1.05047189397737	"Decision"	"Neutral"	1.05047189397737	"1"	"images/C1f01.jpg"	9
307.592551527196	8.94952810602263	"Response"	"Neutral"	1.05047189397737	"1"	"images/C1f01.jpg"	9
316.542012504186	2	"Thinking"	"Neutral"	1.05047189397737	"1"	"images/C1f01.jpg"	9
316.553909694427	2	"Feedback"	"Neutral"	1.05047189397737	"1"	"images/C1f01.jpg"	9
320.545104988618	1.066980504198	"Decision"	"Trustworthy"	1.066980504198	"4"	"images/A1f01.jpg"	18
321.626269050641	4.933019495802	"Response"	"Trustworthy"	1.066980504198	"4"	"images/A1f01.jpg"	18
326.559086021851	2	"Thinking"	"Trustworthy"	1.066980504198	"4"	"images/A1f01.jpg"	18
328.561658540973	2	"Feedback"	"Trustworthy"	1.066980504198	"4"	"images/A1f01.jpg"	18
334.562018079334	1.8506294763647	"Decision"	"Trustworthy"	1.8506294763647	"4"	"images/A1f01.jpg"	0
336.426679220167	4.1493705236353	"Response"	"Trustworthy"	1.8506294763647	"4"	"images/A1f01.jpg"	0
340.576318828505	2	"Thinking"	"Trustworthy"	1.8506294763647	"4"	"images/A1f01.jpg"	0
342.578558547306	2	"Feedback"	"Trustworthy"	1.8506294763647	"4"	"images/A1f01.jpg"	0
