"onset"	"duration"	"event"	"trial_type"	"response_time"	"response_key"	"stim_file_left"	"stim_file_right"
2.00901291938499	2	"View"	"Neutral"	1.51671796152368	"2"	"images/C7f07.jpg"	"images/silhouette.jpg"
4.00901291938499	4	"Decision"	"Neutral"	1.51671796152368	"2"	"images/C7f07.jpg"	"images/silhouette.jpg"
14.0235918555409	2	"View"	"Neutral"	1.01717819320038	"2"	"images/C4f03.jpg"	"images/silhouette.jpg"
16.0235918555409	4	"Decision"	"Neutral"	1.01717819320038	"2"	"images/C4f03.jpg"	"images/silhouette.jpg"
30.0428066742606	2	"View"	"Untrustworthy"	0.750227271579206	"1"	"images/silhouette.jpg"	"images/B1f03.jpg"
32.0428066742606	4	"Decision"	"Untrustworthy"	0.750227271579206	"1"	"images/silhouette.jpg"	"images/B1f03.jpg"
42.0578839578666	2	"View"	"Trustworthy"	0.733694768045098	"2"	"images/silhouette.jpg"	"images/A9f03.jpg"
44.0578839578666	4	"Decision"	"Trustworthy"	0.733694768045098	"2"	"images/silhouette.jpg"	"images/A9f03.jpg"
52.0769821535796	2	"View"	"Neutral"	1.18346294527873	"2"	"images/C6f04.jpg"	"images/silhouette.jpg"
54.0769821535796	4	"Decision"	"Neutral"	1.18346294527873	"2"	"images/C6f04.jpg"	"images/silhouette.jpg"
62.0911156493239	2	"View"	"Neutral"	0.78365466138348	"2"	"images/C3f08.jpg"	"images/silhouette.jpg"
64.0911156493239	4	"Decision"	"Neutral"	0.78365466138348	"2"	"images/C3f08.jpg"	"images/silhouette.jpg"
72.1085743051954	2	"View"	"Untrustworthy"	0.683788350317627	"2"	"images/B8f04.jpg"	"images/silhouette.jpg"
74.1085743051954	4	"Decision"	"Untrustworthy"	0.683788350317627	"2"	"images/B8f04.jpg"	"images/silhouette.jpg"
82.12771801278	2	"View"	"Trustworthy"	0.849908693227917	"1"	"images/silhouette.jpg"	"images/A7f07.jpg"
84.12771801278	4	"Decision"	"Trustworthy"	0.849908693227917	"1"	"images/silhouette.jpg"	"images/A7f07.jpg"
96.142647953704	2	"View"	"Neutral"	0.984026146121323	"1"	"images/silhouette.jpg"	"images/C7f03.jpg"
98.142647953704	4	"Decision"	"Neutral"	0.984026146121323	"1"	"images/silhouette.jpg"	"images/C7f03.jpg"
110.159654911608	2	"View"	"Trustworthy"	0.983734874520451	"1"	"images/silhouette.jpg"	"images/A2f07.jpg"
112.159654911608	4	"Decision"	"Trustworthy"	0.983734874520451	"1"	"images/silhouette.jpg"	"images/A2f07.jpg"
122.176571415272	2	"View"	"Trustworthy"	0.55035640951246	"1"	"images/silhouette.jpg"	"images/A9f08.jpg"
124.176571415272	4	"Decision"	"Trustworthy"	0.55035640951246	"1"	"images/silhouette.jpg"	"images/A9f08.jpg"
136.195921629667	2	"View"	"Neutral"	1.36697197100148	"2"	"images/C8f04.jpg"	"images/silhouette.jpg"
138.195921629667	4	"Decision"	"Neutral"	1.36697197100148	"2"	"images/C8f04.jpg"	"images/silhouette.jpg"
146.210002787411	2	"View"	"Untrustworthy"	1.01701492164284	"2"	"images/B1f03.jpg"	"images/silhouette.jpg"
148.210002787411	4	"Decision"	"Untrustworthy"	1.01701492164284	"2"	"images/B1f03.jpg"	"images/silhouette.jpg"
158.22954813065	2	"View"	"Trustworthy"	1.1336845275946	"1"	"images/silhouette.jpg"	"images/A4f08.jpg"
160.22954813065	4	"Decision"	"Trustworthy"	1.1336845275946	"1"	"images/silhouette.jpg"	"images/A4f08.jpg"
170.245823496021	2	"View"	"Untrustworthy"	0.66705673513934	"2"	"images/B7f07.jpg"	"images/silhouette.jpg"
172.245823496021	4	"Decision"	"Untrustworthy"	0.66705673513934	"2"	"images/B7f07.jpg"	"images/silhouette.jpg"
180.261171571445	2	"View"	"Neutral"	0.817078637424856	"2"	"images/C2f07.jpg"	"images/silhouette.jpg"
182.261171571445	4	"Decision"	"Neutral"	0.817078637424856	"2"	"images/C2f07.jpg"	"images/silhouette.jpg"
190.280543403234	2	"View"	"Untrustworthy"	1.05004977760836	"1"	"images/silhouette.jpg"	"images/B3f04.jpg"
192.280543403234	4	"Decision"	"Untrustworthy"	1.05004977760836	"1"	"images/silhouette.jpg"	"images/B3f04.jpg"
200.294866908342	2	"View"	"Untrustworthy"	1.20047786738724	"1"	"images/silhouette.jpg"	"images/B3f08.jpg"
202.294866908342	4	"Decision"	"Untrustworthy"	1.20047786738724	"1"	"images/silhouette.jpg"	"images/B3f08.jpg"
210.314840056468	2	"View"	"Untrustworthy"	1.36705502914265	"2"	"images/B8f04.jpg"	"images/silhouette.jpg"
212.314840056468	4	"Decision"	"Untrustworthy"	1.36705502914265	"2"	"images/B8f04.jpg"	"images/silhouette.jpg"
222.332364134956	2	"View"	"Untrustworthy"	1.33275496214628	"1"	"images/silhouette.jpg"	"images/B4f03.jpg"
224.332364134956	4	"Decision"	"Untrustworthy"	1.33275496214628	"1"	"images/silhouette.jpg"	"images/B4f03.jpg"
232.347449382767	2	"View"	"Neutral"	0.833371638786048	"1"	"images/C9f03.jpg"	"images/silhouette.jpg"
234.347449382767	4	"Decision"	"Neutral"	0.833371638786048	"1"	"images/C9f03.jpg"	"images/silhouette.jpg"
250.364151415415	2	"View"	"Untrustworthy"	1.88381850160658	"2"	"images/B9f08.jpg"	"images/silhouette.jpg"
252.364151415415	4	"Decision"	"Untrustworthy"	1.88381850160658	"2"	"images/B9f08.jpg"	"images/silhouette.jpg"
260.383087478112	2	"View"	"Untrustworthy"	1.00009841797873	"1"	"images/silhouette.jpg"	"images/B4f08.jpg"
262.383087478112	4	"Decision"	"Untrustworthy"	1.00009841797873	"1"	"images/silhouette.jpg"	"images/B4f08.jpg"
270.397404725198	2	"View"	"Neutral"	2.2838611677289	"1"	"images/silhouette.jpg"	"images/C5f08.jpg"
272.397404725198	4	"Decision"	"Neutral"	2.2838611677289	"1"	"images/silhouette.jpg"	"images/C5f08.jpg"
282.415184803773	2	"View"	"Untrustworthy"	1.16754598077387	"1"	"images/silhouette.jpg"	"images/B1f07.jpg"
284.415184803773	4	"Decision"	"Untrustworthy"	1.16754598077387	"1"	"images/silhouette.jpg"	"images/B1f07.jpg"
300.43213942321	2	"View"	"Neutral"	1.36710167769343	"1"	"images/silhouette.jpg"	"images/C4f08.jpg"
302.43213942321	4	"Decision"	"Neutral"	1.36710167769343	"1"	"images/silhouette.jpg"	"images/C4f08.jpg"
310.448933047242	2	"View"	"Neutral"	0.734097541775554	"1"	"images/silhouette.jpg"	"images/C1f03.jpg"
312.448933047242	4	"Decision"	"Neutral"	0.734097541775554	"1"	"images/silhouette.jpg"	"images/C1f03.jpg"
320.467652931809	2	"View"	"Neutral"	1.5839669816196	"2"	"images/C7f07.jpg"	"images/silhouette.jpg"
322.467652931809	4	"Decision"	"Neutral"	1.5839669816196	"2"	"images/C7f07.jpg"	"images/silhouette.jpg"
